"success","timeout","failed_images","failed_audio","failed_video","trial_type","trial_index","time_elapsed","internal_node_id","rt","stimulus","response","correct","iat_type","rand","key_e3","key_i3","key_e34","key_i34","key_e67","key_i67"
"true","false","[]","[]","[]","preload","0","669","0.0-0.0","","","","","","","","","","","",""
"","","","","","html-keyboard-response","1","4033","0.0-1.0","3362","<p>Welcome to the Implicit Association Test (IAT).</p><p>Press any key to begin.</p>"," ","","","","","","","","",""
"","","","","","html-keyboard-response","2","33222","0.0-2.0","27685","<p>You will use the ""e"" and ""i"" computer keys to categorize items into groups as fast as you can. These are the four groups and the items that belong to each:<br><br><strong>Good</strong>:<br>Enjoy, Smiling, Glorious, Beautiful, Fantastic, Friend, Cheer, Joyous<br><br><strong>Bad</strong>:<br>Awful, Bothersome, Pain, Nasty, Hurtful, Rotten, Evil, Annoy<br><br><strong>African Americans</strong>:<br><img src='img/black/b1.png'></img>  <img src='img/black/b2.png'></img>  <img src='img/black/b3.png'></img>  <img src='img/black/b4.png'></img>  <img src='img/black/b5.png'></img>  <img src='img/black/b6.png'></img><br><br><strong>European Americans</strong>:<br><img src='img/white/w1.png'></img>  <img src='img/white/w2.png'></img>  <img src='img/white/w3.png'></img>  <img src='img/white/w4.png'></img>  <img src='img/white/w5.png'></img>  <img src='img/white/w6.png'></img><br><br>There are seven parts. The instructions change for each part. Pay attention!<br><br>Press any key to continue.</p>"," ","","","","","","","","",""
"","","","","","html-keyboard-response","3","62307","0.0-3.0","27576","<div style='position: absolute; top: 18%; left: 20%'><p>Press e for:<br><strong>European Americans</strong></p></div><div style='position: absolute; top: 18%; right: 20%'><p>Press i for:<br><strong>African Americans</strong></p></div><div style='position: relative; top: 42%; margin-left: auto; margin-right: auto'>Put a left finger on the <strong>e</strong> key for items that belong to the European Americans People category. Put a right finger on the <strong>i</strong> key for items that belong to the African Americans People category. Items will appear one at a time.<br><br>If you make a mistake, a red X will appear. Press the keys listed below to continue. Go as fast as you can while being accurate.<br><br> Press the any key when you are ready to start.</div>"," ","","","","","","","","",""
"","","","","","iat-image","4","64830","0.0-4.0-0.0","2516","img/black/b2.png","i","true","practice","1","","","","","",""
"","","","","","iat-image","5","65716","0.0-4.0-0.1","883","img/white/w5.png","e","true","practice","1","","","","","",""
"","","","","","iat-image","6","66520","0.0-4.0-0.2","799","img/white/w3.png","e","true","practice","1","","","","","",""
"","","","","","iat-image","7","67225","0.0-4.0-0.3","702","img/white/w1.png","e","true","practice","1","","","","","",""
"","","","","","iat-image","8","67977","0.0-4.0-0.4","752","img/black/b5.png","i","true","practice","1","","","","","",""
"","","","","","iat-image","9","68786","0.0-4.0-0.5","806","img/black/b1.png","i","true","practice","1","","","","","",""
"","","","","","iat-image","10","69528","0.0-4.0-0.6","739","img/black/b4.png","i","true","practice","1","","","","","",""
"","","","","","iat-image","11","70324","0.0-4.0-0.7","794","img/black/b3.png","i","true","practice","1","","","","","",""
"","","","","","iat-image","12","71040","0.0-4.0-0.8","713","img/white/w4.png","e","true","practice","1","","","","","",""
"","","","","","iat-image","13","71739","0.0-4.0-0.9","696","img/white/w6.png","e","true","practice","1","","","","","",""
"","","","","","iat-image","14","72526","0.0-4.0-0.10","780","img/black/b6.png","i","true","practice","1","","","","","",""
"","","","","","iat-image","15","73305","0.0-4.0-0.11","777","img/white/w2.png","e","true","practice","1","","","","","",""
"","","","","","iat-image","16","74077","0.0-4.0-0.12","769","img/black/b3.png","i","true","practice","1","","","","","",""
"","","","","","iat-image","17","74900","0.0-4.0-0.13","819","img/black/b6.png","i","true","practice","1","","","","","",""
"","","","","","iat-image","18","75575","0.0-4.0-0.14","673","img/black/b4.png","i","true","practice","1","","","","","",""
"","","","","","iat-image","19","76413","0.0-4.0-0.15","835","img/white/w1.png","e","true","practice","1","","","","","",""
"","","","","","iat-image","20","77182","0.0-4.0-0.16","766","img/white/w6.png","e","true","practice","1","","","","","",""
"","","","","","iat-image","21","77980","0.0-4.0-0.17","796","img/black/b2.png","i","true","practice","1","","","","","",""
"","","","","","iat-image","22","78794","0.0-4.0-0.18","813","img/white/w5.png","e","true","practice","1","","","","","",""
"","","","","","iat-image","23","79577","0.0-4.0-0.19","780","img/white/w4.png","e","true","practice","1","","","","","",""
"","","","","","iat-image","24","80316","0.0-4.0-0.20","737","img/black/b1.png","i","true","practice","1","","","","","",""
"","","","","","iat-image","25","81125","0.0-4.0-0.21","807","img/black/b5.png","i","true","practice","1","","","","","",""
"","","","","","iat-image","26","81887","0.0-4.0-0.22","759","img/white/w3.png","e","true","practice","1","","","","","",""
"","","","","","iat-image","27","82670","0.0-4.0-0.23","782","img/white/w2.png","e","true","practice","1","","","","","",""
"","","","","","html-keyboard-response","28","88217","0.0-5.0","5545","<div style='position: absolute; top: 18%; left: 20%'>Press E for:<br><strong>BAD</strong></div><div style='position: absolute; top: 18%; right: 20%'>Press I for:<br><strong>GOOD</strong></div><div style='position: relative; top: 42%; margin-left: auto; margin-right: auto'>Put a left finger on the <strong>e</strong> key for items that belong to the BAD category. Put a right finger on the <strong>i</strong> key for items that belong to the GOOD category. Items will appear one at a time.<br><br>If you make a mistake, a red X will appear. Press the keys listed below to continue. Go as fast as you can while being accurate.<br><br> Press the any key when you are ready to start.</div>"," ","","","","","","","","",""
"","","","","","iat-html","29","90006","0.0-6.0-0.0","1786","Fantastic","i","true","practice","","","","","","",""
"","","","","","iat-html","30","90873","0.0-6.0-0.1","865","Evil","e","true","practice","","","","","","",""
"","","","","","iat-html","31","91686","0.0-6.0-0.2","812","Hurtful","e","true","practice","","","","","","",""
"","","","","","iat-html","32","92610","0.0-6.0-0.3","923","Enjoy","i","true","practice","","","","","","",""
"","","","","","iat-html","33","94450","0.0-6.0-0.4","1839","Annoy","e","true","practice","","","","","","",""
"","","","","","iat-html","34","95371","0.0-6.0-0.5","920","Glorious","i","true","practice","","","","","","",""
"","","","","","iat-html","35","96532","0.0-6.0-0.6","1161","Cheer","i","true","practice","","","","","","",""
"","","","","","iat-html","36","97367","0.0-6.0-0.7","835","Nasty","e","true","practice","","","","","","",""
"","","","","","iat-html","37","98579","0.0-6.0-0.8","1211","Joyous","i","true","practice","","","","","","",""
"","","","","","iat-html","38","99765","0.0-6.0-0.9","1186","Pain","e","true","practice","","","","","","",""
"","","","","","iat-html","39","100953","0.0-6.0-0.10","1186","Beautiful","i","true","practice","","","","","","",""
"","","","","","iat-html","40","101855","0.0-6.0-0.11","900","Friend","i","true","practice","","","","","","",""
"","","","","","iat-html","41","102678","0.0-6.0-0.12","822","Rotten","e","true","practice","","","","","","",""
"","","","","","iat-html","42","103546","0.0-6.0-0.13","867","Bothersome","e","true","practice","","","","","","",""
"","","","","","iat-html","43","106087","0.0-6.0-0.14","997","Awful","i","false","practice","","","","","","",""
"","","","","","iat-html","44","107312","0.0-6.0-0.15","1224","Smiling","i","true","practice","","","","","","",""
"","","","","","iat-html","45","108283","0.0-6.0-0.16","970","Nasty","e","true","practice","","","","","","",""
"","","","","","iat-html","46","109205","0.0-6.0-0.17","921","Rotten","e","true","practice","","","","","","",""
"","","","","","iat-html","47","110623","0.0-6.0-0.18","1417","Annoy","e","true","practice","","","","","","",""
"","","","","","iat-html","48","111719","0.0-6.0-0.19","1094","Awful","e","true","practice","","","","","","",""
"","","","","","iat-html","49","112533","0.0-6.0-0.20","814","Evil","e","true","practice","","","","","","",""
"","","","","","iat-html","50","113532","0.0-6.0-0.21","998","Joyous","i","true","practice","","","","","","",""
"","","","","","iat-html","51","114477","0.0-6.0-0.22","941","Enjoy","i","true","practice","","","","","","",""
"","","","","","iat-html","52","115342","0.0-6.0-0.23","865","Glorious","i","true","practice","","","","","","",""
"","","","","","iat-html","53","116271","0.0-6.0-0.24","928","Smiling","i","true","practice","","","","","","",""
"","","","","","iat-html","54","117197","0.0-6.0-0.25","925","Bothersome","e","true","practice","","","","","","",""
"","","","","","iat-html","55","118280","0.0-6.0-0.26","1080","Friend","i","true","practice","","","","","","",""
"","","","","","iat-html","56","119197","0.0-6.0-0.27","915","Pain","e","true","practice","","","","","","",""
"","","","","","iat-html","57","120282","0.0-6.0-0.28","1083","Beautiful","i","true","practice","","","","","","",""
"","","","","","iat-html","58","122299","0.0-6.0-0.29","2017","Fantastic","i","true","practice","","","","","","",""
"","","","","","iat-html","59","123137","0.0-6.0-0.30","836","Hurtful","e","true","practice","","","","","","",""
"","","","","","iat-html","60","124060","0.0-6.0-0.31","921","Cheer","i","true","practice","","","","","","",""
"","","","","","html-keyboard-response","61","134799","0.0-7.0","10738","<div style='position: absolute; top: 18%; left: 20%'>Press e for:<br> <strong>European Americans</strong><br>or<br><strong>BAD</strong></div><div style='position: absolute; top: 18%; right: 20%'>Press i for:<br><strong>African Americans</strong><br>or<br><strong>GOOD</strong></div><div style='position: relative; top: 42%; margin-left: auto; margin-right: auto'>Use <strong>e</strong> for European Americans or BAD. Use <strong>i</strong> for African Americans or GOOD <br>Each item belongs to only one category.<br><br>If you make a mistake, a red X will appear. Press the keys listed below to continue. Go as fast as you can while being accurate.<br><br> Press any key when you are ready to start.</div>"," ","","","","","","","","",""
"","","","","","iat-html","62","136921","0.0-8.0-0.0","2120","<img src=img/black/b5.png></img>","i","true","practice","","European Americans or BAD","African Americans or GOOD","","","",""
"","","","","","iat-html","63","137854","0.0-8.0-0.1","930","<img src=img/white/w2.png></img>","e","true","practice","","European Americans or BAD","African Americans or GOOD","","","",""
"","","","","","iat-html","64","138660","0.0-8.0-0.2","803","Annoy","e","true","practice","","European Americans or BAD","African Americans or GOOD","","","",""
"","","","","","iat-html","65","139616","0.0-8.0-0.3","953","<img src=img/black/b2.png></img>","i","true","practice","","European Americans or BAD","African Americans or GOOD","","","",""
"","","","","","iat-html","66","140552","0.0-8.0-0.4","935","Hurtful","e","true","practice","","European Americans or BAD","African Americans or GOOD","","","",""
"","","","","","iat-html","67","141487","0.0-8.0-0.5","933","Awful","e","true","practice","","European Americans or BAD","African Americans or GOOD","","","",""
"","","","","","iat-html","68","142502","0.0-8.0-0.6","1013","<img src=img/black/b1.png></img>","i","true","practice","","European Americans or BAD","African Americans or GOOD","","","",""
"","","","","","iat-html","69","143924","0.0-8.0-0.7","1422","Friend","i","true","practice","","European Americans or BAD","African Americans or GOOD","","","",""
"","","","","","iat-html","70","144827","0.0-8.0-0.8","902","<img src=img/white/w1.png></img>","e","true","practice","","European Americans or BAD","African Americans or GOOD","","","",""
"","","","","","iat-html","71","146438","0.0-8.0-0.9","1610","Glorious","i","true","practice","","European Americans or BAD","African Americans or GOOD","","","",""
"","","","","","iat-html","72","147280","0.0-8.0-0.10","840","Cheer","i","true","practice","","European Americans or BAD","African Americans or GOOD","","","",""
"","","","","","iat-html","73","148598","0.0-8.0-0.11","1316","Enjoy","i","true","practice","","European Americans or BAD","African Americans or GOOD","","","",""
"","","","","","iat-html","74","150080","0.0-8.0-0.12","1479","Rotten","e","true","practice","","European Americans or BAD","African Americans or GOOD","","","",""
"","","","","","iat-html","75","151354","0.0-8.0-0.13","1273","Nasty","e","true","practice","","European Americans or BAD","African Americans or GOOD","","","",""
"","","","","","iat-html","76","153607","0.0-8.0-0.14","928","<img src=img/black/b6.png></img>","e","false","practice","","European Americans or BAD","African Americans or GOOD","","","",""
"","","","","","iat-html","77","155058","0.0-8.0-0.15","1450","<img src=img/white/w5.png></img>","e","true","practice","","European Americans or BAD","African Americans or GOOD","","","",""
"","","","","","iat-html","78","155935","0.0-8.0-0.16","875","<img src=img/white/w6.png></img>","e","true","practice","","European Americans or BAD","African Americans or GOOD","","","",""
"","","","","","iat-html","79","157001","0.0-8.0-0.17","1064","<img src=img/white/w3.png></img>","e","true","practice","","European Americans or BAD","African Americans or GOOD","","","",""
"","","","","","iat-html","80","157926","0.0-8.0-0.18","924","<img src=img/black/b4.png></img>","i","true","practice","","European Americans or BAD","African Americans or GOOD","","","",""
"","","","","","iat-html","81","159416","0.0-8.0-0.19","1489","Fantastic","i","true","practice","","European Americans or BAD","African Americans or GOOD","","","",""
"","","","","","iat-html","82","160341","0.0-8.0-0.20","924","Evil","e","true","practice","","European Americans or BAD","African Americans or GOOD","","","",""
"","","","","","iat-html","83","161242","0.0-8.0-0.21","900","Pain","e","true","practice","","European Americans or BAD","African Americans or GOOD","","","",""
"","","","","","iat-html","84","162418","0.0-8.0-0.22","1176","Beautiful","i","true","practice","","European Americans or BAD","African Americans or GOOD","","","",""
"","","","","","iat-html","85","163485","0.0-8.0-0.23","1066","Smiling","i","true","practice","","European Americans or BAD","African Americans or GOOD","","","",""
"","","","","","iat-html","86","165134","0.0-8.0-0.24","1648","Bothersome","e","true","practice","","European Americans or BAD","African Americans or GOOD","","","",""
"","","","","","iat-html","87","166289","0.0-8.0-0.25","1153","<img src=img/black/b3.png></img>","i","true","practice","","European Americans or BAD","African Americans or GOOD","","","",""
"","","","","","iat-html","88","167151","0.0-8.0-0.26","859","<img src=img/white/w4.png></img>","e","true","practice","","European Americans or BAD","African Americans or GOOD","","","",""
"","","","","","iat-html","89","168126","0.0-8.0-0.27","974","Joyous","i","true","practice","","European Americans or BAD","African Americans or GOOD","","","",""
"","","","","","html-keyboard-response","90","174633","0.0-9.0","6506","<div style='position: absolute; top: 18%; left: 20%'>Press e for:<br> <strong>European Americans</strong><br>or<br><strong>BAD</strong></div><div style='position: absolute; top: 18%; right: 20%'>Press i for:<br><strong>African Americans</strong><br>or<br><strong>GOOD</strong></div><div style='position: relative; top: 42%; margin-left: auto; margin-right: auto'>Use <strong>e</strong> for European Americans or BADUse <strong>i</strong> for African Americans or GOOD <br>Each item belongs to only one category.<br><br>If you make a mistake, a red X will appear. Press the keys listed below to continue. Go as fast as you can while being accurate.<br><br> Press any key when you are ready to start.</div>"," ","","","","","","","","",""
"","","","","","iat-html","91","176842","0.0-10.0-0.0","2206","<img src=img/white/w5.png></img>","e","true","European Americans or BADAfrican Americans or GOOD","","","","European Americans or BAD","African Americans or GOOD","",""
"","","","","","iat-html","92","177678","0.0-10.0-0.1","835","<img src=img/black/b2.png></img>","i","true","European Americans or BADAfrican Americans or GOOD","","","","European Americans or BAD","African Americans or GOOD","",""
"","","","","","iat-html","93","178894","0.0-10.0-0.2","1214","Glorious","i","true","European Americans or BADAfrican Americans or GOOD","","","","European Americans or BAD","African Americans or GOOD","",""
"","","","","","iat-html","94","179919","0.0-10.0-0.3","1025","Nasty","e","true","European Americans or BADAfrican Americans or GOOD","","","","European Americans or BAD","African Americans or GOOD","",""
"","","","","","iat-html","95","180942","0.0-10.0-0.4","1021","<img src=img/black/b1.png></img>","i","true","European Americans or BADAfrican Americans or GOOD","","","","European Americans or BAD","African Americans or GOOD","",""
"","","","","","iat-html","96","181554","0.0-10.0-0.5","610","<img src=img/black/b3.png></img>","i","true","European Americans or BADAfrican Americans or GOOD","","","","European Americans or BAD","African Americans or GOOD","",""
"","","","","","iat-html","97","185764","0.0-10.0-0.6","1003","Enjoy","e","false","European Americans or BADAfrican Americans or GOOD","","","","European Americans or BAD","African Americans or GOOD","",""
"","","","","","iat-html","98","186468","0.0-10.0-0.7","703","<img src=img/black/b4.png></img>","i","true","European Americans or BADAfrican Americans or GOOD","","","","European Americans or BAD","African Americans or GOOD","",""
"","","","","","iat-html","99","187395","0.0-10.0-0.8","925","Bothersome","e","true","European Americans or BADAfrican Americans or GOOD","","","","European Americans or BAD","African Americans or GOOD","",""
"","","","","","iat-html","100","188312","0.0-10.0-0.9","916","Cheer","i","true","European Americans or BADAfrican Americans or GOOD","","","","European Americans or BAD","African Americans or GOOD","",""
"","","","","","iat-html","101","188923","0.0-10.0-0.10","609","Fantastic","i","true","European Americans or BADAfrican Americans or GOOD","","","","European Americans or BAD","African Americans or GOOD","",""
"","","","","","iat-html","102","189571","0.0-10.0-0.11","646","<img src=img/black/b5.png></img>","i","true","European Americans or BADAfrican Americans or GOOD","","","","European Americans or BAD","African Americans or GOOD","",""
"","","","","","iat-html","103","190366","0.0-10.0-0.12","793","<img src=img/white/w6.png></img>","e","true","European Americans or BADAfrican Americans or GOOD","","","","European Americans or BAD","African Americans or GOOD","",""
"","","","","","iat-html","104","192332","0.0-10.0-0.13","1963","Rotten","e","true","European Americans or BADAfrican Americans or GOOD","","","","European Americans or BAD","African Americans or GOOD","",""
"","","","","","iat-html","105","193325","0.0-10.0-0.14","990","Smiling","i","true","European Americans or BADAfrican Americans or GOOD","","","","European Americans or BAD","African Americans or GOOD","",""
"","","","","","iat-html","106","195195","0.0-10.0-0.15","1868","<img src=img/black/b6.png></img>","i","true","European Americans or BADAfrican Americans or GOOD","","","","European Americans or BAD","African Americans or GOOD","",""
"","","","","","iat-html","107","196484","0.0-10.0-0.16","1288","Hurtful","e","true","European Americans or BADAfrican Americans or GOOD","","","","European Americans or BAD","African Americans or GOOD","",""
"","","","","","iat-html","108","197308","0.0-10.0-0.17","821","<img src=img/white/w2.png></img>","e","true","European Americans or BADAfrican Americans or GOOD","","","","European Americans or BAD","African Americans or GOOD","",""
"","","","","","iat-html","109","197972","0.0-10.0-0.18","662","<img src=img/white/w1.png></img>","e","true","European Americans or BADAfrican Americans or GOOD","","","","European Americans or BAD","African Americans or GOOD","",""
"","","","","","iat-html","110","199011","0.0-10.0-0.19","1038","Awful","e","true","European Americans or BADAfrican Americans or GOOD","","","","European Americans or BAD","African Americans or GOOD","",""
"","","","","","iat-html","111","200155","0.0-10.0-0.20","1143","Beautiful","i","true","European Americans or BADAfrican Americans or GOOD","","","","European Americans or BAD","African Americans or GOOD","",""
"","","","","","iat-html","112","201390","0.0-10.0-0.21","1233","Evil","e","true","European Americans or BADAfrican Americans or GOOD","","","","European Americans or BAD","African Americans or GOOD","",""
"","","","","","iat-html","113","202281","0.0-10.0-0.22","889","Pain","e","true","European Americans or BADAfrican Americans or GOOD","","","","European Americans or BAD","African Americans or GOOD","",""
"","","","","","iat-html","114","203668","0.0-10.0-0.23","1385","Friend","i","true","European Americans or BADAfrican Americans or GOOD","","","","European Americans or BAD","African Americans or GOOD","",""
"","","","","","iat-html","115","204789","0.0-10.0-0.24","1121","Annoy","e","true","European Americans or BADAfrican Americans or GOOD","","","","European Americans or BAD","African Americans or GOOD","",""
"","","","","","iat-html","116","205748","0.0-10.0-0.25","957","<img src=img/white/w3.png></img>","e","true","European Americans or BADAfrican Americans or GOOD","","","","European Americans or BAD","African Americans or GOOD","",""
"","","","","","iat-html","117","206399","0.0-10.0-0.26","649","<img src=img/white/w4.png></img>","e","true","European Americans or BADAfrican Americans or GOOD","","","","European Americans or BAD","African Americans or GOOD","",""
"","","","","","iat-html","118","208773","0.0-10.0-0.27","910","Joyous","e","false","European Americans or BADAfrican Americans or GOOD","","","","European Americans or BAD","African Americans or GOOD","",""
"","","","","","iat-html","119","210401","0.0-10.0-0.28","1627","Hurtful","e","true","European Americans or BADAfrican Americans or GOOD","","","","European Americans or BAD","African Americans or GOOD","",""
"","","","","","iat-html","120","211324","0.0-10.0-0.29","922","Enjoy","i","true","European Americans or BADAfrican Americans or GOOD","","","","European Americans or BAD","African Americans or GOOD","",""
"","","","","","iat-html","121","212705","0.0-10.0-0.30","1379","Pain","e","true","European Americans or BADAfrican Americans or GOOD","","","","European Americans or BAD","African Americans or GOOD","",""
"","","","","","iat-html","122","213813","0.0-10.0-0.31","1106","<img src=img/white/w4.png></img>","e","true","European Americans or BADAfrican Americans or GOOD","","","","European Americans or BAD","African Americans or GOOD","",""
"","","","","","iat-html","123","214707","0.0-10.0-0.32","893","<img src=img/white/w6.png></img>","e","true","European Americans or BADAfrican Americans or GOOD","","","","European Americans or BAD","African Americans or GOOD","",""
"","","","","","iat-html","124","215921","0.0-10.0-0.33","1211","<img src=img/black/b3.png></img>","i","true","European Americans or BADAfrican Americans or GOOD","","","","European Americans or BAD","African Americans or GOOD","",""
"","","","","","iat-html","125","217441","0.0-10.0-0.34","1520","Joyous","i","true","European Americans or BADAfrican Americans or GOOD","","","","European Americans or BAD","African Americans or GOOD","",""
"","","","","","iat-html","126","218221","0.0-10.0-0.35","778","Smiling","i","true","European Americans or BADAfrican Americans or GOOD","","","","European Americans or BAD","African Americans or GOOD","",""
"","","","","","iat-html","127","219197","0.0-10.0-0.36","973","Nasty","e","true","European Americans or BADAfrican Americans or GOOD","","","","European Americans or BAD","African Americans or GOOD","",""
"","","","","","iat-html","128","222188","0.0-10.0-0.37","2991","Cheer","i","true","European Americans or BADAfrican Americans or GOOD","","","","European Americans or BAD","African Americans or GOOD","",""
"","","","","","iat-html","129","223111","0.0-10.0-0.38","921","Rotten","e","true","European Americans or BADAfrican Americans or GOOD","","","","European Americans or BAD","African Americans or GOOD","",""
"","","","","","iat-html","130","226814","0.0-10.0-0.39","2120","<img src=img/black/b2.png></img>","e","false","European Americans or BADAfrican Americans or GOOD","","","","European Americans or BAD","African Americans or GOOD","",""
"","","","","","iat-html","131","227485","0.0-10.0-0.40","669","<img src=img/black/b4.png></img>","i","true","European Americans or BADAfrican Americans or GOOD","","","","European Americans or BAD","African Americans or GOOD","",""
"","","","","","iat-html","132","229133","0.0-10.0-0.41","1647","Annoy","e","true","European Americans or BADAfrican Americans or GOOD","","","","European Americans or BAD","African Americans or GOOD","",""
"","","","","","iat-html","133","230528","0.0-10.0-0.42","1394","Beautiful","i","true","European Americans or BADAfrican Americans or GOOD","","","","European Americans or BAD","African Americans or GOOD","",""
"","","","","","iat-html","134","231430","0.0-10.0-0.43","901","Fantastic","i","true","European Americans or BADAfrican Americans or GOOD","","","","European Americans or BAD","African Americans or GOOD","",""
"","","","","","iat-html","135","232523","0.0-10.0-0.44","1091","Friend","i","true","European Americans or BADAfrican Americans or GOOD","","","","European Americans or BAD","African Americans or GOOD","",""
"","","","","","iat-html","136","233677","0.0-10.0-0.45","1153","Bothersome","e","true","European Americans or BADAfrican Americans or GOOD","","","","European Americans or BAD","African Americans or GOOD","",""
"","","","","","iat-html","137","235666","0.0-10.0-0.46","918","<img src=img/black/b1.png></img>","e","false","European Americans or BADAfrican Americans or GOOD","","","","European Americans or BAD","African Americans or GOOD","",""
"","","","","","iat-html","138","236373","0.0-10.0-0.47","702","<img src=img/black/b6.png></img>","i","true","European Americans or BADAfrican Americans or GOOD","","","","European Americans or BAD","African Americans or GOOD","",""
"","","","","","iat-html","139","237326","0.0-10.0-0.48","950","<img src=img/white/w1.png></img>","e","true","European Americans or BADAfrican Americans or GOOD","","","","European Americans or BAD","African Americans or GOOD","",""
"","","","","","iat-html","140","239006","0.0-10.0-0.49","1677","Awful","e","true","European Americans or BADAfrican Americans or GOOD","","","","European Americans or BAD","African Americans or GOOD","",""
"","","","","","iat-html","141","240336","0.0-10.0-0.50","1329","Glorious","i","true","European Americans or BADAfrican Americans or GOOD","","","","European Americans or BAD","African Americans or GOOD","",""
"","","","","","iat-html","142","241255","0.0-10.0-0.51","916","<img src=img/white/w5.png></img>","e","true","European Americans or BADAfrican Americans or GOOD","","","","European Americans or BAD","African Americans or GOOD","",""
"","","","","","iat-html","143","242040","0.0-10.0-0.52","783","<img src=img/white/w2.png></img>","e","true","European Americans or BADAfrican Americans or GOOD","","","","European Americans or BAD","African Americans or GOOD","",""
"","","","","","iat-html","144","244003","0.0-10.0-0.53","1961","<img src=img/black/b5.png></img>","i","true","European Americans or BADAfrican Americans or GOOD","","","","European Americans or BAD","African Americans or GOOD","",""
"","","","","","iat-html","145","244789","0.0-10.0-0.54","785","<img src=img/white/w3.png></img>","e","true","European Americans or BADAfrican Americans or GOOD","","","","European Americans or BAD","African Americans or GOOD","",""
"","","","","","iat-html","146","246712","0.0-10.0-0.55","1921","Evil","e","true","European Americans or BADAfrican Americans or GOOD","","","","European Americans or BAD","African Americans or GOOD","",""
"","","","","","html-keyboard-response","147","252168","0.0-11.0","5455","<div style='position: absolute; top: 18%; left: 20%'>Press e for:<br><strong>African American</strong></div><div style='position: absolute; top: 18%; right: 20%'>Press i for:<br><strong>European American</strong></div><div style='position: relative; top: 42%; margin-left: auto; margin-right: auto'>Watch out, the labels have changed positions!<br>Use <strong>e</strong> for African American People<br>Use <strong>i</strong> for European American People<br><br>If you make a mistake, a red X will appear. Press the keys listed below to continue. Go as fast as you can while being accurate.<br><br> Press the any key when you are ready to start.</div>"," ","","","","","","","","",""
"","","","","","iat-image","148","253778","0.0-12.0-0.0","1609","img/black/b5.png","e","true","practice","","","","","","",""
"","","","","","iat-image","149","254491","0.0-12.0-0.1","711","img/white/w1.png","i","true","practice","","","","","","",""
"","","","","","iat-image","150","255160","0.0-12.0-0.2","668","img/white/w3.png","i","true","practice","","","","","","",""
"","","","","","iat-image","151","255838","0.0-12.0-0.3","674","img/black/b3.png","e","true","practice","","","","","","",""
"","","","","","iat-image","152","257348","0.0-12.0-0.4","1506","img/black/b1.png","e","true","practice","","","","","","",""
"","","","","","iat-image","153","258298","0.0-12.0-0.5","950","img/white/w6.png","i","true","practice","","","","","","",""
"","","","","","iat-image","154","258967","0.0-12.0-0.6","666","img/white/w5.png","i","true","practice","","","","","","",""
"","","","","","iat-image","155","259657","0.0-12.0-0.7","689","img/black/b6.png","e","true","practice","","","","","","",""
"","","","","","iat-image","156","260394","0.0-12.0-0.8","736","img/black/b4.png","e","true","practice","","","","","","",""
"","","","","","iat-image","157","261163","0.0-12.0-0.9","767","img/white/w2.png","i","true","practice","","","","","","",""
"","","","","","iat-image","158","261813","0.0-12.0-0.10","647","img/white/w4.png","i","true","practice","","","","","","",""
"","","","","","iat-image","159","262535","0.0-12.0-0.11","720","img/black/b2.png","e","true","practice","","","","","","",""
"","","","","","iat-image","160","263191","0.0-12.0-0.12","655","img/white/w6.png","i","true","practice","","","","","","",""
"","","","","","iat-image","161","263878","0.0-12.0-0.13","685","img/white/w3.png","i","true","practice","","","","","","",""
"","","","","","iat-image","162","264465","0.0-12.0-0.14","586","img/white/w4.png","i","true","practice","","","","","","",""
"","","","","","iat-image","163","265152","0.0-12.0-0.15","685","img/black/b3.png","e","true","practice","","","","","","",""
"","","","","","iat-image","164","265797","0.0-12.0-0.16","643","img/black/b1.png","e","true","practice","","","","","","",""
"","","","","","iat-image","165","266507","0.0-12.0-0.17","708","img/white/w2.png","i","true","practice","","","","","","",""
"","","","","","iat-image","166","267155","0.0-12.0-0.18","645","img/white/w1.png","i","true","practice","","","","","","",""
"","","","","","iat-image","167","267827","0.0-12.0-0.19","670","img/black/b5.png","e","true","practice","","","","","","",""
"","","","","","iat-image","168","268449","0.0-12.0-0.20","621","img/black/b6.png","e","true","practice","","","","","","",""
"","","","","","iat-image","169","269086","0.0-12.0-0.21","636","img/black/b2.png","e","true","practice","","","","","","",""
"","","","","","iat-image","170","269756","0.0-12.0-0.22","670","img/black/b4.png","e","true","practice","","","","","","",""
"","","","","","iat-image","171","270492","0.0-12.0-0.23","734","img/white/w5.png","i","true","practice","","","","","","",""
"","","","","","html-keyboard-response","172","277318","0.0-13.0","6824","<div style='position: absolute; top: 18%; left: 20%'>Press e for:<br> <strong>African Americans</strong><br>or<br><strong>GOOD</strong></div><div style='position: absolute; top: 18%; right: 20%'>Press i for:<br><strong>European Americans</strong><br>or<br><strong>BAD</strong></div><div style='position: relative; top: 42%; margin-left: auto; margin-right: auto'>Use <strong>e</strong> for African Americans or GOOD<br>Use <strong>i</strong> for European Americans or BAD <br><br>If you make a mistake, a red X will appear. Press the keys listed below to continue. Go as fast as you can while being accurate.<br><br> Press the any key when you are ready to start.</div>"," ","","","","","","","","",""
"","","","","","iat-html","173","278600","0.0-14.0-0.0","1281","<img src=img/white/w4.png></img>","i","true","practice","","","","","","African Americans or GOOD","European Americans or BAD"
"","","","","","iat-html","174","280179","0.0-14.0-0.1","1578","Fantastic","e","true","practice","","","","","","African Americans or GOOD","European Americans or BAD"
"","","","","","iat-html","175","280982","0.0-14.0-0.2","801","<img src=img/black/b6.png></img>","e","true","practice","","","","","","African Americans or GOOD","European Americans or BAD"
"","","","","","iat-html","176","281606","0.0-14.0-0.3","621","<img src=img/black/b3.png></img>","e","true","practice","","","","","","African Americans or GOOD","European Americans or BAD"
"","","","","","iat-html","177","282482","0.0-14.0-0.4","874","<img src=img/white/w3.png></img>","i","true","practice","","","","","","African Americans or GOOD","European Americans or BAD"
"","","","","","iat-html","178","283893","0.0-14.0-0.5","1410","Cheer","e","true","practice","","","","","","African Americans or GOOD","European Americans or BAD"
"","","","","","iat-html","179","285229","0.0-14.0-0.6","1335","Rotten","i","true","practice","","","","","","African Americans or GOOD","European Americans or BAD"
"","","","","","iat-html","180","285905","0.0-14.0-0.7","675","Hurtful","i","true","practice","","","","","","African Americans or GOOD","European Americans or BAD"
"","","","","","iat-html","181","286483","0.0-14.0-0.8","577","Evil","i","true","practice","","","","","","African Americans or GOOD","European Americans or BAD"
"","","","","","iat-html","182","287134","0.0-14.0-0.9","649","Pain","i","true","practice","","","","","","African Americans or GOOD","European Americans or BAD"
"","","","","","iat-html","183","287946","0.0-14.0-0.10","809","Smiling","e","true","practice","","","","","","African Americans or GOOD","European Americans or BAD"
"","","","","","iat-html","184","288678","0.0-14.0-0.11","731","Beautiful","e","true","practice","","","","","","African Americans or GOOD","European Americans or BAD"
"","","","","","iat-html","185","290494","0.0-14.0-0.12","1814","<img src=img/white/w6.png></img>","i","true","practice","","","","","","African Americans or GOOD","European Americans or BAD"
"","","","","","iat-html","186","291078","0.0-14.0-0.13","581","<img src=img/white/w5.png></img>","i","true","practice","","","","","","African Americans or GOOD","European Americans or BAD"
"","","","","","iat-html","187","292691","0.0-14.0-0.14","1612","Enjoy","e","true","practice","","","","","","African Americans or GOOD","European Americans or BAD"
"","","","","","iat-html","188","293740","0.0-14.0-0.15","1048","Glorious","e","true","practice","","","","","","African Americans or GOOD","European Americans or BAD"
"","","","","","iat-html","189","295034","0.0-14.0-0.16","1290","<img src=img/white/w1.png></img>","i","true","practice","","","","","","African Americans or GOOD","European Americans or BAD"
"","","","","","iat-html","190","296400","0.0-14.0-0.17","1365","Joyous","e","true","practice","","","","","","African Americans or GOOD","European Americans or BAD"
"","","","","","iat-html","191","297725","0.0-14.0-0.18","1323","<img src=img/white/w2.png></img>","i","true","practice","","","","","","African Americans or GOOD","European Americans or BAD"
"","","","","","iat-html","192","298544","0.0-14.0-0.19","818","Bothersome","i","true","practice","","","","","","African Americans or GOOD","European Americans or BAD"
"","","","","","iat-html","193","299471","0.0-14.0-0.20","926","Friend","e","true","practice","","","","","","African Americans or GOOD","European Americans or BAD"
"","","","","","iat-html","194","300460","0.0-14.0-0.21","987","Awful","i","true","practice","","","","","","African Americans or GOOD","European Americans or BAD"
"","","","","","iat-html","195","301210","0.0-14.0-0.22","749","Annoy","i","true","practice","","","","","","African Americans or GOOD","European Americans or BAD"
"","","","","","iat-html","196","301808","0.0-14.0-0.23","598","Nasty","i","true","practice","","","","","","African Americans or GOOD","European Americans or BAD"
"","","","","","iat-html","197","302621","0.0-14.0-0.24","811","<img src=img/black/b2.png></img>","e","true","practice","","","","","","African Americans or GOOD","European Americans or BAD"
"","","","","","iat-html","198","303205","0.0-14.0-0.25","583","<img src=img/black/b4.png></img>","e","true","practice","","","","","","African Americans or GOOD","European Americans or BAD"
"","","","","","iat-html","199","303951","0.0-14.0-0.26","742","<img src=img/black/b5.png></img>","e","true","practice","","","","","","African Americans or GOOD","European Americans or BAD"
"","","","","","iat-html","200","304616","0.0-14.0-0.27","663","<img src=img/black/b1.png></img>","e","true","practice","","","","","","African Americans or GOOD","European Americans or BAD"
"","","","","","html-keyboard-response","201","312028","0.0-15.0","7411","<div style='position: absolute; top: 18%; left: 20%'>Press e for:<br> <strong>African Americans</strong><br>or<br><strong>GOOD</strong></div><div style='position: absolute; top: 18%; right: 20%'>Press i for:<br><strong>European Americans</strong><br>or<br><strong>BAD</strong></div><div style='position: relative; top: 42%; margin-left: auto; margin-right: auto'>Use <strong>e</strong> for African Americans or GOOD<br>Use <strong>i</strong> for European Americans or BAD <br><br>If you make a mistake, a red X will appear. Press the keys listed below to continue. Go as fast as you can while being accurate.<br><br> Press the any key when you are ready to start.</div>"," ","","","","","","","","",""
"","","","","","iat-html","202","313958","0.0-16.0-0.0","1924","<img src=img/white/w1.png></img>","i","true","African Americans or GOODEuropean Americans or BAD","","","","","","African Americans or GOOD","European Americans or BAD"
"","","","","","iat-html","203","314830","0.0-16.0-0.1","869","Cheer","e","true","African Americans or GOODEuropean Americans or BAD","","","","","","African Americans or GOOD","European Americans or BAD"
"","","","","","iat-html","204","315492","0.0-16.0-0.2","661","Smiling","e","true","African Americans or GOODEuropean Americans or BAD","","","","","","African Americans or GOOD","European Americans or BAD"
"","","","","","iat-html","205","316164","0.0-16.0-0.3","671","Beautiful","e","true","African Americans or GOODEuropean Americans or BAD","","","","","","African Americans or GOOD","European Americans or BAD"
"","","","","","iat-html","206","317610","0.0-16.0-0.4","1444","<img src=img/black/b2.png></img>","e","true","African Americans or GOODEuropean Americans or BAD","","","","","","African Americans or GOOD","European Americans or BAD"
"","","","","","iat-html","207","318561","0.0-16.0-0.5","949","Nasty","i","true","African Americans or GOODEuropean Americans or BAD","","","","","","African Americans or GOOD","European Americans or BAD"
"","","","","","iat-html","208","319277","0.0-16.0-0.6","715","Bothersome","i","true","African Americans or GOODEuropean Americans or BAD","","","","","","African Americans or GOOD","European Americans or BAD"
"","","","","","iat-html","209","320667","0.0-16.0-0.7","1388","<img src=img/black/b5.png></img>","e","true","African Americans or GOODEuropean Americans or BAD","","","","","","African Americans or GOOD","European Americans or BAD"
"","","","","","iat-html","210","321568","0.0-16.0-0.8","899","<img src=img/white/w4.png></img>","i","true","African Americans or GOODEuropean Americans or BAD","","","","","","African Americans or GOOD","European Americans or BAD"
"","","","","","iat-html","211","322350","0.0-16.0-0.9","780","<img src=img/black/b3.png></img>","e","true","African Americans or GOODEuropean Americans or BAD","","","","","","African Americans or GOOD","European Americans or BAD"
"","","","","","iat-html","212","323102","0.0-16.0-0.10","752","<img src=img/black/b1.png></img>","e","true","African Americans or GOODEuropean Americans or BAD","","","","","","African Americans or GOOD","European Americans or BAD"
"","","","","","iat-html","213","323815","0.0-16.0-0.11","712","<img src=img/white/w3.png></img>","i","true","African Americans or GOODEuropean Americans or BAD","","","","","","African Americans or GOOD","European Americans or BAD"
"","","","","","iat-html","214","325043","0.0-16.0-0.12","1226","Glorious","e","true","African Americans or GOODEuropean Americans or BAD","","","","","","African Americans or GOOD","European Americans or BAD"
"","","","","","iat-html","215","326250","0.0-16.0-0.13","1207","Enjoy","e","true","African Americans or GOODEuropean Americans or BAD","","","","","","African Americans or GOOD","European Americans or BAD"
"","","","","","iat-html","216","327195","0.0-16.0-0.14","944","<img src=img/white/w5.png></img>","i","true","African Americans or GOODEuropean Americans or BAD","","","","","","African Americans or GOOD","European Americans or BAD"
"","","","","","iat-html","217","328148","0.0-16.0-0.15","953","Evil","i","true","African Americans or GOODEuropean Americans or BAD","","","","","","African Americans or GOOD","European Americans or BAD"
"","","","","","iat-html","218","328820","0.0-16.0-0.16","670","Awful","i","true","African Americans or GOODEuropean Americans or BAD","","","","","","African Americans or GOOD","European Americans or BAD"
"","","","","","iat-html","219","329412","0.0-16.0-0.17","590","Annoy","i","true","African Americans or GOODEuropean Americans or BAD","","","","","","African Americans or GOOD","European Americans or BAD"
"","","","","","iat-html","220","331097","0.0-16.0-0.18","1684","<img src=img/white/w6.png></img>","i","true","African Americans or GOODEuropean Americans or BAD","","","","","","African Americans or GOOD","European Americans or BAD"
"","","","","","iat-html","221","332039","0.0-16.0-0.19","939","Hurtful","i","true","African Americans or GOODEuropean Americans or BAD","","","","","","African Americans or GOOD","European Americans or BAD"
"","","","","","iat-html","222","332717","0.0-16.0-0.20","678","Pain","i","true","African Americans or GOODEuropean Americans or BAD","","","","","","African Americans or GOOD","European Americans or BAD"
"","","","","","iat-html","223","333369","0.0-16.0-0.21","648","<img src=img/white/w2.png></img>","i","true","African Americans or GOODEuropean Americans or BAD","","","","","","African Americans or GOOD","European Americans or BAD"
"","","","","","iat-html","224","334075","0.0-16.0-0.22","704","<img src=img/black/b6.png></img>","e","true","African Americans or GOODEuropean Americans or BAD","","","","","","African Americans or GOOD","European Americans or BAD"
"","","","","","iat-html","225","334912","0.0-16.0-0.23","835","Rotten","i","true","African Americans or GOODEuropean Americans or BAD","","","","","","African Americans or GOOD","European Americans or BAD"
"","","","","","iat-html","226","335778","0.0-16.0-0.24","866","Friend","e","true","African Americans or GOODEuropean Americans or BAD","","","","","","African Americans or GOOD","European Americans or BAD"
"","","","","","iat-html","227","336495","0.0-16.0-0.25","713","Joyous","e","true","African Americans or GOODEuropean Americans or BAD","","","","","","African Americans or GOOD","European Americans or BAD"
"","","","","","iat-html","228","337332","0.0-16.0-0.26","835","Fantastic","e","true","African Americans or GOODEuropean Americans or BAD","","","","","","African Americans or GOOD","European Americans or BAD"
"","","","","","iat-html","229","338739","0.0-16.0-0.27","1403","<img src=img/black/b4.png></img>","e","true","African Americans or GOODEuropean Americans or BAD","","","","","","African Americans or GOOD","European Americans or BAD"
"","","","","","iat-html","230","339711","0.0-16.0-0.28","971","Evil","i","true","African Americans or GOODEuropean Americans or BAD","","","","","","African Americans or GOOD","European Americans or BAD"
"","","","","","iat-html","231","341009","0.0-16.0-0.29","1296","<img src=img/white/w5.png></img>","i","true","African Americans or GOODEuropean Americans or BAD","","","","","","African Americans or GOOD","European Americans or BAD"
"","","","","","iat-html","232","341901","0.0-16.0-0.30","891","Annoy","i","true","African Americans or GOODEuropean Americans or BAD","","","","","","African Americans or GOOD","European Americans or BAD"
"","","","","","iat-html","233","342714","0.0-16.0-0.31","811","Beautiful","e","true","African Americans or GOODEuropean Americans or BAD","","","","","","African Americans or GOOD","European Americans or BAD"
"","","","","","iat-html","234","343868","0.0-16.0-0.32","1153","Pain","i","true","African Americans or GOODEuropean Americans or BAD","","","","","","African Americans or GOOD","European Americans or BAD"
"","","","","","iat-html","235","344587","0.0-16.0-0.33","717","<img src=img/black/b5.png></img>","e","true","African Americans or GOODEuropean Americans or BAD","","","","","","African Americans or GOOD","European Americans or BAD"
"","","","","","iat-html","236","346559","0.0-16.0-0.34","1971","Rotten","i","true","African Americans or GOODEuropean Americans or BAD","","","","","","African Americans or GOOD","European Americans or BAD"
"","","","","","iat-html","237","348758","0.0-16.0-0.35","1105","Bothersome","e","false","African Americans or GOODEuropean Americans or BAD","","","","","","African Americans or GOOD","European Americans or BAD"
"","","","","","iat-html","238","349519","0.0-16.0-0.36","759","Hurtful","i","true","African Americans or GOODEuropean Americans or BAD","","","","","","African Americans or GOOD","European Americans or BAD"
"","","","","","iat-html","239","350052","0.0-16.0-0.37","531","Awful","i","true","African Americans or GOODEuropean Americans or BAD","","","","","","African Americans or GOOD","European Americans or BAD"
"","","","","","iat-html","240","351389","0.0-16.0-0.38","1335","<img src=img/black/b6.png></img>","e","true","African Americans or GOODEuropean Americans or BAD","","","","","","African Americans or GOOD","European Americans or BAD"
"","","","","","iat-html","241","352350","0.0-16.0-0.39","958","<img src=img/white/w6.png></img>","i","true","African Americans or GOODEuropean Americans or BAD","","","","","","African Americans or GOOD","European Americans or BAD"
"","","","","","iat-html","242","353290","0.0-16.0-0.40","938","Fantastic","e","true","African Americans or GOODEuropean Americans or BAD","","","","","","African Americans or GOOD","European Americans or BAD"
"","","","","","iat-html","243","354131","0.0-16.0-0.41","839","<img src=img/white/w4.png></img>","i","true","African Americans or GOODEuropean Americans or BAD","","","","","","African Americans or GOOD","European Americans or BAD"
"","","","","","iat-html","244","354752","0.0-16.0-0.42","620","<img src=img/white/w3.png></img>","i","true","African Americans or GOODEuropean Americans or BAD","","","","","","African Americans or GOOD","European Americans or BAD"
"","","","","","iat-html","245","355674","0.0-16.0-0.43","920","<img src=img/black/b2.png></img>","e","true","African Americans or GOODEuropean Americans or BAD","","","","","","African Americans or GOOD","European Americans or BAD"
"","","","","","iat-html","246","356246","0.0-16.0-0.44","571","<img src=img/black/b1.png></img>","e","true","African Americans or GOODEuropean Americans or BAD","","","","","","African Americans or GOOD","European Americans or BAD"
"","","","","","iat-html","247","356804","0.0-16.0-0.45","557","<img src=img/black/b3.png></img>","e","true","African Americans or GOODEuropean Americans or BAD","","","","","","African Americans or GOOD","European Americans or BAD"
"","","","","","iat-html","248","357274","0.0-16.0-0.46","469","<img src=img/black/b4.png></img>","e","true","African Americans or GOODEuropean Americans or BAD","","","","","","African Americans or GOOD","European Americans or BAD"
"","","","","","iat-html","249","358182","0.0-16.0-0.47","906","Joyous","e","true","African Americans or GOODEuropean Americans or BAD","","","","","","African Americans or GOOD","European Americans or BAD"
"","","","","","iat-html","250","358942","0.0-16.0-0.48","759","Nasty","i","true","African Americans or GOODEuropean Americans or BAD","","","","","","African Americans or GOOD","European Americans or BAD"
"","","","","","iat-html","251","359798","0.0-16.0-0.49","853","<img src=img/white/w1.png></img>","i","true","African Americans or GOODEuropean Americans or BAD","","","","","","African Americans or GOOD","European Americans or BAD"
"","","","","","iat-html","252","360897","0.0-16.0-0.50","1096","Enjoy","e","true","African Americans or GOODEuropean Americans or BAD","","","","","","African Americans or GOOD","European Americans or BAD"
"","","","","","iat-html","253","361688","0.0-16.0-0.51","789","Cheer","e","true","African Americans or GOODEuropean Americans or BAD","","","","","","African Americans or GOOD","European Americans or BAD"
"","","","","","iat-html","254","362449","0.0-16.0-0.52","758","<img src=img/white/w2.png></img>","i","true","African Americans or GOODEuropean Americans or BAD","","","","","","African Americans or GOOD","European Americans or BAD"
"","","","","","iat-html","255","363822","0.0-16.0-0.53","1372","Friend","e","true","African Americans or GOODEuropean Americans or BAD","","","","","","African Americans or GOOD","European Americans or BAD"
"","","","","","iat-html","256","365406","0.0-16.0-0.54","1582","Smiling","e","true","African Americans or GOODEuropean Americans or BAD","","","","","","African Americans or GOOD","European Americans or BAD"
"","","","","","iat-html","257","366111","0.0-16.0-0.55","702","Glorious","e","true","African Americans or GOODEuropean Americans or BAD","","","","","","African Americans or GOOD","European Americans or BAD"
"","","","","","html-keyboard-response","258","371304","0.0-17.0","5192","<p>You're all done! Thanks. PRESS ANY BUTTON, and then send an email to gjf2118@columbia.edu</p>"," ","","","","","","","","",""
