"success","timeout","failed_images","failed_audio","failed_video","trial_type","trial_index","time_elapsed","internal_node_id","rt","response","question_order","view_history","trait","stimulus","slider_start"
"true","false","[]","[]","[]","preload","0","92","0.0-0.0","","","","","","",""
"","","","","","survey-text","1","2034","0.0-1.0","1938","{""Q0"":""605ff0746397c26c436b88af""}","","","","",""
"","","","","","survey-multi-choice","2","4114","0.0-2.0","2079","{""Eng"":""Yes""}","[0]","","","",""
"","","","","","instructions","3","11186","0.0-3.0","7070","","","[{""page_index"":0,""viewing_time"":5166},{""page_index"":1,""viewing_time"":1904}]","","",""
"","","","","","instructions","4","12290","0.0-4.0","1103","","","[{""page_index"":0,""viewing_time"":1103}]","","",""
"","","","","","instructions","5","17650","0.0-5.0","5360","","","[{""page_index"":0,""viewing_time"":736},{""page_index"":1,""viewing_time"":2000},{""page_index"":2,""viewing_time"":2624}]","","",""
"","","","","","survey-text","6","27314","0.0-6.0","9660","{""Q0"":""Ugly""}","","","Beautiful","",""
"","","","","","html-slider-response","7","33250","0.0-7.0","5935","7","","","Beautiful","<div style=""width:500px;""> <p>How strongly do you feel that <strong>Ugly</strong> is a good fit for the opposite side of the <strong>Beautiful</strong> scale?</p></div>","4"
"","","","","","survey-text","8","44210","0.0-8.0","10958","{""Q0"":""Knowledgeable""}","","","Ignorant","",""
"","","","","","html-slider-response","9","46290","0.0-9.0","2079","7","","","Ignorant","<div style=""width:500px;""> <p>How strongly do you feel that <strong>Knowledgeable</strong> is a good fit for the opposite side of the <strong>Ignorant</strong> scale?</p></div>","4"
"","","","","","survey-text","10","48587","0.0-10.0","2294","{""Q0"":""Sad""}","","","Happy","",""
"","","","","","html-slider-response","11","50362","0.0-11.0","1775","7","","","Happy","<div style=""width:500px;""> <p>How strongly do you feel that <strong>Sad</strong> is a good fit for the opposite side of the <strong>Happy</strong> scale?</p></div>","4"
"","","","","","survey-text","12","55002","0.0-12.0","4639","{""Q0"":""Calm""}","","","Angry","",""
"","","","","","html-slider-response","13","57130","0.0-13.0","2127","6","","","Angry","<div style=""width:500px;""> <p>How strongly do you feel that <strong>Calm</strong> is a good fit for the opposite side of the <strong>Angry</strong> scale?</p></div>","4"
"","","","","","survey-text","14","61619","0.0-14.0","4487","{""Q0"":""Modern""}","","","Traditional","",""
"","","","","","html-slider-response","15","62722","0.0-15.0","1103","6","","","Traditional","<div style=""width:500px;""> <p>How strongly do you feel that <strong>Modern</strong> is a good fit for the opposite side of the <strong>Traditional</strong> scale?</p></div>","4"
"","","","","","survey-text","16","80267","0.0-16.0","17543","{""Q0"":""Clumsy""}","","","Charismatic","",""
"","","","","","html-slider-response","17","82570","0.0-17.0","2303","5","","","Charismatic","<div style=""width:500px;""> <p>How strongly do you feel that <strong>Clumsy</strong> is a good fit for the opposite side of the <strong>Charismatic</strong> scale?</p></div>","4"
"","","","","","survey-text","18","87459","0.0-18.0","4887","{""Q0"":""Quiet""}","","","Outspoken","",""
"","","","","","html-slider-response","19","89442","0.0-19.0","1983","6","","","Outspoken","<div style=""width:500px;""> <p>How strongly do you feel that <strong>Quiet</strong> is a good fit for the opposite side of the <strong>Outspoken</strong> scale?</p></div>","4"
"","","","","","survey-text","20","98731","0.0-20.0","9287","{""Q0"":""Lenient ""}","","","Strict","",""
"","","","","","html-slider-response","21","100314","0.0-21.0","1583","7","","","Strict","<div style=""width:500px;""> <p>How strongly do you feel that <strong>Lenient </strong> is a good fit for the opposite side of the <strong>Strict</strong> scale?</p></div>","4"
"","","","","","survey-text","22","109242","0.0-22.0","8927","{""Q0"":""Honest""}","","","Manipulative","",""
"","","","","","html-slider-response","23","111370","0.0-23.0","2127","6","","","Manipulative","<div style=""width:500px;""> <p>How strongly do you feel that <strong>Honest</strong> is a good fit for the opposite side of the <strong>Manipulative</strong> scale?</p></div>","4"
"","","","","","survey-text","24","118546","0.0-24.0","7175","{""Q0"":""Close-minded""}","","","Open-minded","",""
"","","","","","html-slider-response","25","122242","0.0-25.0","3695","7","","","Open-minded","<div style=""width:500px;""> <p>How strongly do you feel that <strong>Close-minded</strong> is a good fit for the opposite side of the <strong>Open-minded</strong> scale?</p></div>","4"
"","","","","","survey-text","26","127906","0.0-26.0","5663","{""Q0"":""Pessimistic""}","","","Optimistic","",""
"","","","","","html-slider-response","27","129538","0.0-27.0","1631","7","","","Optimistic","<div style=""width:500px;""> <p>How strongly do you feel that <strong>Pessimistic</strong> is a good fit for the opposite side of the <strong>Optimistic</strong> scale?</p></div>","4"
"","","","","","survey-text","28","137674","0.0-28.0","8135","{""Q0"":""Dull""}","","","Enthusiastic","",""
"","","","","","html-slider-response","29","139250","0.0-29.0","1575","7","","","Enthusiastic","<div style=""width:500px;""> <p>How strongly do you feel that <strong>Dull</strong> is a good fit for the opposite side of the <strong>Enthusiastic</strong> scale?</p></div>","4"
"","","","","","survey-text","30","144594","0.0-30.0","5343","{""Q0"":""Unhelpful""}","","","Helpful","",""
"","","","","","html-slider-response","31","145810","0.0-31.0","1215","7","","","Helpful","<div style=""width:500px;""> <p>How strongly do you feel that <strong>Unhelpful</strong> is a good fit for the opposite side of the <strong>Helpful</strong> scale?</p></div>","4"
"","","","","","survey-text","32","159370","0.0-32.0","13559","{""Q0"":""Sporadic""}","","","Consistent","",""
"","","","","","html-slider-response","33","161426","0.0-33.0","2055","7","","","Consistent","<div style=""width:500px;""> <p>How strongly do you feel that <strong>Sporadic</strong> is a good fit for the opposite side of the <strong>Consistent</strong> scale?</p></div>","4"
"","","","","","survey-text","34","170018","0.0-34.0","8591","{""Q0"":""Imcompetent""}","","","Competent","",""
"","","","","","html-slider-response","35","171850","0.0-35.0","1831","6","","","Competent","<div style=""width:500px;""> <p>How strongly do you feel that <strong>Imcompetent</strong> is a good fit for the opposite side of the <strong>Competent</strong> scale?</p></div>","4"
"","","","","","survey-text","36","178242","0.0-36.0","6391","{""Q0"":""Thoughtless""}","","","Thoughtful","",""
"","","","","","html-slider-response","37","182050","0.0-37.0","3807","6","","","Thoughtful","<div style=""width:500px;""> <p>How strongly do you feel that <strong>Thoughtless</strong> is a good fit for the opposite side of the <strong>Thoughtful</strong> scale?</p></div>","4"
"","","","","","survey-text","38","189074","0.0-38.0","7023","{""Q0"":""Dishonest""}","","","Trustworthy","",""
"","","","","","html-slider-response","39","190258","0.0-39.0","1183","7","","","Trustworthy","<div style=""width:500px;""> <p>How strongly do you feel that <strong>Dishonest</strong> is a good fit for the opposite side of the <strong>Trustworthy</strong> scale?</p></div>","4"
"","","","","","survey-text","40","195618","0.0-40.0","5359","{""Q0"":""Trusting""}","","","Skeptical","",""
"","","","","","html-slider-response","41","197114","0.0-41.0","1495","7","","","Skeptical","<div style=""width:500px;""> <p>How strongly do you feel that <strong>Trusting</strong> is a good fit for the opposite side of the <strong>Skeptical</strong> scale?</p></div>","4"
"","","","","","survey-text","42","232818","0.0-42.0","35703","{""Q0"":""Caring""}","","","Abusive","",""
"","","","","","html-slider-response","43","235426","0.0-43.0","2607","7","","","Abusive","<div style=""width:500px;""> <p>How strongly do you feel that <strong>Caring</strong> is a good fit for the opposite side of the <strong>Abusive</strong> scale?</p></div>","4"
"","","","","","survey-text","44","240202","0.0-44.0","4775","{""Q0"":""Uplifting""}","","","Condescending","",""
"","","","","","html-slider-response","45","241362","0.0-45.0","1159","6","","","Condescending","<div style=""width:500px;""> <p>How strongly do you feel that <strong>Uplifting</strong> is a good fit for the opposite side of the <strong>Condescending</strong> scale?</p></div>","4"
"","","","","","survey-text","46","244787","0.0-46.0","3423","{""Q0"":""Careless""}","","","Careful","",""
"","","","","","html-slider-response","47","246090","0.0-47.0","1303","7","","","Careful","<div style=""width:500px;""> <p>How strongly do you feel that <strong>Careless</strong> is a good fit for the opposite side of the <strong>Careful</strong> scale?</p></div>","4"
"","","","","","survey-text","48","254938","0.0-48.0","8847","{""Q0"":""Common""}","","","Atypical","",""
"","","","","","html-slider-response","49","256394","0.0-49.0","1455","7","","","Atypical","<div style=""width:500px;""> <p>How strongly do you feel that <strong>Common</strong> is a good fit for the opposite side of the <strong>Atypical</strong> scale?</p></div>","4"
"","","","","","survey-text","50","265315","0.0-50.0","8919","{""Q0"":""Unhealthy""}","","","Healthy","",""
"","","","","","html-slider-response","51","266666","0.0-51.0","1351","7","","","Healthy","<div style=""width:500px;""> <p>How strongly do you feel that <strong>Unhealthy</strong> is a good fit for the opposite side of the <strong>Healthy</strong> scale?</p></div>","4"
"","","","","","survey-text","52","269859","0.0-52.0","3191","{""Q0"":""Calm""}","","","Anxious","",""
"","","","","","html-slider-response","53","270954","0.0-53.0","1095","6","","","Anxious","<div style=""width:500px;""> <p>How strongly do you feel that <strong>Calm</strong> is a good fit for the opposite side of the <strong>Anxious</strong> scale?</p></div>","4"
"","","","","","survey-text","54","276859","0.0-54.0","5903","{""Q0"":""Uncaring""}","","","Empathetic","",""
"","","","","","html-slider-response","55","278354","0.0-55.0","1495","6","","","Empathetic","<div style=""width:500px;""> <p>How strongly do you feel that <strong>Uncaring</strong> is a good fit for the opposite side of the <strong>Empathetic</strong> scale?</p></div>","4"
"","","","","","survey-text","56","283066","0.0-56.0","4711","{""Q0"":""Difficult""}","","","Easygoing","",""
"","","","","","html-slider-response","57","284474","0.0-57.0","1407","6","","","Easygoing","<div style=""width:500px;""> <p>How strongly do you feel that <strong>Difficult</strong> is a good fit for the opposite side of the <strong>Easygoing</strong> scale?</p></div>","4"
"","","","","","survey-text","58","293667","0.0-58.0","9191","{""Q0"":""Synthetic""}","","","Natural","",""
"","","","","","html-slider-response","59","295570","0.0-59.0","1903","7","","","Natural","<div style=""width:500px;""> <p>How strongly do you feel that <strong>Synthetic</strong> is a good fit for the opposite side of the <strong>Natural</strong> scale?</p></div>","4"
"","","","","","survey-text","60","301530","0.0-60.0","5959","{""Q0"":""Cold""}","","","Affectionate","",""
"","","","","","html-slider-response","61","302515","0.0-61.0","983","7","","","Affectionate","<div style=""width:500px;""> <p>How strongly do you feel that <strong>Cold</strong> is a good fit for the opposite side of the <strong>Affectionate</strong> scale?</p></div>","4"
"","","","","","survey-text","62","336123","0.0-62.0","33606","{""Q0"":""Carefree""}","","","Prudish","",""
"","","","","","html-slider-response","63","337866","0.0-63.0","1743","7","","","Prudish","<div style=""width:500px;""> <p>How strongly do you feel that <strong>Carefree</strong> is a good fit for the opposite side of the <strong>Prudish</strong> scale?</p></div>","4"
"","","","","","survey-text","64","347259","0.0-64.0","9391","{""Q0"":""Active""}","","","Passive","",""
"","","","","","html-slider-response","65","348842","0.0-65.0","1583","7","","","Passive","<div style=""width:500px;""> <p>How strongly do you feel that <strong>Active</strong> is a good fit for the opposite side of the <strong>Passive</strong> scale?</p></div>","4"
"","","","","","survey-text","66","362067","0.0-66.0","13223","{""Q0"":""Confident""}","","","Self-pitying","",""
"","","","","","html-slider-response","67","365210","0.0-67.0","3143","7","","","Self-pitying","<div style=""width:500px;""> <p>How strongly do you feel that <strong>Confident</strong> is a good fit for the opposite side of the <strong>Self-pitying</strong> scale?</p></div>","4"
"","","","","","survey-text","68","406907","0.0-68.0","41695","{""Q0"":""Conforming""}","","","Rebellious","",""
"","","","","","html-slider-response","69","408266","0.0-69.0","1359","7","","","Rebellious","<div style=""width:500px;""> <p>How strongly do you feel that <strong>Conforming</strong> is a good fit for the opposite side of the <strong>Rebellious</strong> scale?</p></div>","4"
"","","","","","survey-text","70","412026","0.0-70.0","3759","{""Q0"":""Immature""}","","","Mature","",""
"","","","","","html-slider-response","71","413898","0.0-71.0","1871","6","","","Mature","<div style=""width:500px;""> <p>How strongly do you feel that <strong>Immature</strong> is a good fit for the opposite side of the <strong>Mature</strong> scale?</p></div>","4"
"","","","","","survey-text","72","435251","0.0-72.0","21351","{""Q0"":""admiring""}","","","Jealous","",""
"","","","","","html-slider-response","73","437042","0.0-73.0","1791","7","","","Jealous","<div style=""width:500px;""> <p>How strongly do you feel that <strong>admiring</strong> is a good fit for the opposite side of the <strong>Jealous</strong> scale?</p></div>","4"
"","","","","","survey-text","74","444675","0.0-74.0","7631","{""Q0"":""Normal""}","","","Weird","",""
"","","","","","html-slider-response","75","446170","0.0-75.0","1495","7","","","Weird","<div style=""width:500px;""> <p>How strongly do you feel that <strong>Normal</strong> is a good fit for the opposite side of the <strong>Weird</strong> scale?</p></div>","4"
"","","","","","survey-text","76","464227","0.0-76.0","18055","{""Q0"":""Uncreative""}","","","Creative","",""
"","","","","","html-slider-response","77","466786","0.0-77.0","2559","5","","","Creative","<div style=""width:500px;""> <p>How strongly do you feel that <strong>Uncreative</strong> is a good fit for the opposite side of the <strong>Creative</strong> scale?</p></div>","4"
"","","","","","survey-text","78","471827","0.0-78.0","5039","{""Q0"":""Proud""}","","","Humble","",""
"","","","","","html-slider-response","79","473123","0.0-79.0","1295","6","","","Humble","<div style=""width:500px;""> <p>How strongly do you feel that <strong>Proud</strong> is a good fit for the opposite side of the <strong>Humble</strong> scale?</p></div>","4"
"","","","","","survey-text","80","479883","0.0-80.0","6759","{""Q0"":""Dumb""}","","","Wise","",""
"","","","","","html-slider-response","81","482499","0.0-81.0","2615","6","","","Wise","<div style=""width:500px;""> <p>How strongly do you feel that <strong>Dumb</strong> is a good fit for the opposite side of the <strong>Wise</strong> scale?</p></div>","4"
"","","","","","survey-text","82","505531","0.0-82.0","23031","{""Q0"":""Capitulating""}","","","Persistent","",""
"","","","","","html-slider-response","83","507475","0.0-83.0","1943","6","","","Persistent","<div style=""width:500px;""> <p>How strongly do you feel that <strong>Capitulating</strong> is a good fit for the opposite side of the <strong>Persistent</strong> scale?</p></div>","4"
"","","","","","survey-text","84","516379","0.0-84.0","8903","{""Q0"":""Insincere""}","","","Sincere","",""
"","","","","","html-slider-response","85","518219","0.0-85.0","1839","7","","","Sincere","<div style=""width:500px;""> <p>How strongly do you feel that <strong>Insincere</strong> is a good fit for the opposite side of the <strong>Sincere</strong> scale?</p></div>","4"
"","","","","","survey-text","86","550763","0.0-86.0","32543","{""Q0"":""Unfriendly""}","","","Sociable","",""
"","","","","","html-slider-response","87","552035","0.0-87.0","1271","7","","","Sociable","<div style=""width:500px;""> <p>How strongly do you feel that <strong>Unfriendly</strong> is a good fit for the opposite side of the <strong>Sociable</strong> scale?</p></div>","4"
"","","","","","survey-text","88","560651","0.0-88.0","8615","{""Q0"":""Unethical""}","","","Ethical","",""
"","","","","","html-slider-response","89","561771","0.0-89.0","1119","6","","","Ethical","<div style=""width:500px;""> <p>How strongly do you feel that <strong>Unethical</strong> is a good fit for the opposite side of the <strong>Ethical</strong> scale?</p></div>","4"
"","","","","","survey-text","90","566203","0.0-90.0","4431","{""Q0"":""Disagreeable ""}","","","Agreeable","",""
"","","","","","html-slider-response","91","568131","0.0-91.0","1927","7","","","Agreeable","<div style=""width:500px;""> <p>How strongly do you feel that <strong>Disagreeable </strong> is a good fit for the opposite side of the <strong>Agreeable</strong> scale?</p></div>","4"
"","","","","","survey-text","92","578155","0.0-92.0","10023","{""Q0"":""Aloof ""}","","","Self-critical","",""
"","","","","","html-slider-response","93","580171","0.0-93.0","2015","7","","","Self-critical","<div style=""width:500px;""> <p>How strongly do you feel that <strong>Aloof </strong> is a good fit for the opposite side of the <strong>Self-critical</strong> scale?</p></div>","4"
"","","","","","survey-text","94","586211","0.0-94.0","6039","{""Q0"":""Calm""}","","","Emotional","",""
"","","","","","html-slider-response","95","587371","0.0-95.0","1159","6","","","Emotional","<div style=""width:500px;""> <p>How strongly do you feel that <strong>Calm</strong> is a good fit for the opposite side of the <strong>Emotional</strong> scale?</p></div>","4"
"","","","","","survey-text","96","601243","0.0-96.0","13871","{""Q0"":""Stuttering""}","","","Articulate","",""
"","","","","","html-slider-response","97","602611","0.0-97.0","1367","5","","","Articulate","<div style=""width:500px;""> <p>How strongly do you feel that <strong>Stuttering</strong> is a good fit for the opposite side of the <strong>Articulate</strong> scale?</p></div>","4"
"","","","","","survey-text","98","618547","0.0-98.0","15935","{""Q0"":""Careless""}","","","Conscientious","",""
"","","","","","html-slider-response","99","619923","0.0-99.0","1375","7","","","Conscientious","<div style=""width:500px;""> <p>How strongly do you feel that <strong>Careless</strong> is a good fit for the opposite side of the <strong>Conscientious</strong> scale?</p></div>","4"
"","","","","","survey-text","100","628027","0.0-100.0","8103","{""Q0"":""Agnostic""}","","","Religious","",""
"","","","","","html-slider-response","101","630210","0.0-101.0","2183","6","","","Religious","<div style=""width:500px;""> <p>How strongly do you feel that <strong>Agnostic</strong> is a good fit for the opposite side of the <strong>Religious</strong> scale?</p></div>","4"
"","","","","","survey-text","102","666259","0.0-102.0","36047","{""Q0"":""Free""}","","","Compulsive","",""
"","","","","","html-slider-response","103","667779","0.0-103.0","1519","7","","","Compulsive","<div style=""width:500px;""> <p>How strongly do you feel that <strong>Free</strong> is a good fit for the opposite side of the <strong>Compulsive</strong> scale?</p></div>","4"
"","","","","","survey-text","104","672291","0.0-104.0","4511","{""Q0"":""Unreasonable""}","","","Reasonable","",""
"","","","","","html-slider-response","105","673987","0.0-105.0","1695","6","","","Reasonable","<div style=""width:500px;""> <p>How strongly do you feel that <strong>Unreasonable</strong> is a good fit for the opposite side of the <strong>Reasonable</strong> scale?</p></div>","4"
"","","","","","survey-text","106","678155","0.0-106.0","4167","{""Q0"":""Nice""}","","","Cruel","",""
"","","","","","html-slider-response","107","679707","0.0-107.0","1551","7","","","Cruel","<div style=""width:500px;""> <p>How strongly do you feel that <strong>Nice</strong> is a good fit for the opposite side of the <strong>Cruel</strong> scale?</p></div>","4"
"","","","","","survey-text","108","684163","0.0-108.0","4455","{""Q0"":""Dependent""}","","","Independent","",""
"","","","","","html-slider-response","109","686275","0.0-109.0","2111","7","","","Independent","<div style=""width:500px;""> <p>How strongly do you feel that <strong>Dependent</strong> is a good fit for the opposite side of the <strong>Independent</strong> scale?</p></div>","4"
"","","","","","survey-text","110","690971","0.0-110.0","4695","{""Q0"":""Uplifting""}","","","Grumpy","",""
"","","","","","html-slider-response","111","691915","0.0-111.0","943","7","","","Grumpy","<div style=""width:500px;""> <p>How strongly do you feel that <strong>Uplifting</strong> is a good fit for the opposite side of the <strong>Grumpy</strong> scale?</p></div>","4"
"","","","","","survey-text","112","697571","0.0-112.0","5655","{""Q0"":""Fearful""}","","","Courageous","",""
"","","","","","html-slider-response","113","699243","0.0-113.0","1671","7","","","Courageous","<div style=""width:500px;""> <p>How strongly do you feel that <strong>Fearful</strong> is a good fit for the opposite side of the <strong>Courageous</strong> scale?</p></div>","4"
"","","","","","survey-text","114","722699","0.0-114.0","23455","{""Q0"":""Dull""}","","","Clever","",""
"","","","","","html-slider-response","115","724003","0.0-115.0","1303","6","","","Clever","<div style=""width:500px;""> <p>How strongly do you feel that <strong>Dull</strong> is a good fit for the opposite side of the <strong>Clever</strong> scale?</p></div>","4"
"","","","","","survey-text","116","730995","0.0-116.0","6990","{""Q0"":""Easygoing""}","","","Combative","",""
"","","","","","html-slider-response","117","734347","0.0-117.0","3351","6","","","Combative","<div style=""width:500px;""> <p>How strongly do you feel that <strong>Easygoing</strong> is a good fit for the opposite side of the <strong>Combative</strong> scale?</p></div>","4"
"","","","","","survey-text","118","742291","0.0-118.0","7943","{""Q0"":""Uninterested""}","","","Curious","",""
"","","","","","html-slider-response","119","744003","0.0-119.0","1711","7","","","Curious","<div style=""width:500px;""> <p>How strongly do you feel that <strong>Uninterested</strong> is a good fit for the opposite side of the <strong>Curious</strong> scale?</p></div>","4"
"","","","","","survey-text","120","749275","0.0-120.0","5270","{""Q0"":""Orderly""}","","","Disorderly","",""
"","","","","","html-slider-response","121","750291","0.0-121.0","1015","7","","","Disorderly","<div style=""width:500px;""> <p>How strongly do you feel that <strong>Orderly</strong> is a good fit for the opposite side of the <strong>Disorderly</strong> scale?</p></div>","4"
"","","","","","survey-text","122","760419","0.0-122.0","10127","{""Q0"":""Anxious""}","","","Confident","",""
"","","","","","html-slider-response","123","761763","0.0-123.0","1343","7","","","Confident","<div style=""width:500px;""> <p>How strongly do you feel that <strong>Anxious</strong> is a good fit for the opposite side of the <strong>Confident</strong> scale?</p></div>","4"
"","","","","","survey-text","124","770147","0.0-124.0","8383","{""Q0"":""Nice""}","","","Mean","",""
"","","","","","html-slider-response","125","772531","0.0-125.0","2383","6","","","Mean","<div style=""width:500px;""> <p>How strongly do you feel that <strong>Nice</strong> is a good fit for the opposite side of the <strong>Mean</strong> scale?</p></div>","4"
"","","","","","survey-text","126","779251","0.0-126.0","6719","{""Q0"":""Irresponsible""}","","","Responsible","",""
"","","","","","html-slider-response","127","781051","0.0-127.0","1799","7","","","Responsible","<div style=""width:500px;""> <p>How strongly do you feel that <strong>Irresponsible</strong> is a good fit for the opposite side of the <strong>Responsible</strong> scale?</p></div>","4"
"","","","","","survey-text","128","787539","0.0-128.0","6487","{""Q0"":""Dominating""}","","","Submissive","",""
"","","","","","html-slider-response","129","789083","0.0-129.0","1543","7","","","Submissive","<div style=""width:500px;""> <p>How strongly do you feel that <strong>Dominating</strong> is a good fit for the opposite side of the <strong>Submissive</strong> scale?</p></div>","4"
"","","","","","survey-text","130","808667","0.0-130.0","19583","{""Q0"":""Praising""}","","","Critical","",""
"","","","","","html-slider-response","131","809539","0.0-131.0","871","7","","","Critical","<div style=""width:500px;""> <p>How strongly do you feel that <strong>Praising</strong> is a good fit for the opposite side of the <strong>Critical</strong> scale?</p></div>","4"
"","","","","","survey-text","132","814707","0.0-132.0","5167","{""Q0"":""Aged""}","","","Youthful","",""
"","","","","","html-slider-response","133","816003","0.0-133.0","1295","6","","","Youthful","<div style=""width:500px;""> <p>How strongly do you feel that <strong>Aged</strong> is a good fit for the opposite side of the <strong>Youthful</strong> scale?</p></div>","4"
"","","","","","survey-text","134","840427","0.0-134.0","24423","{""Q0"":""Tardy""}","","","Punctual","",""
"","","","","","html-slider-response","135","842274","0.0-135.0","1847","7","","","Punctual","<div style=""width:500px;""> <p>How strongly do you feel that <strong>Tardy</strong> is a good fit for the opposite side of the <strong>Punctual</strong> scale?</p></div>","4"
"","","","","","survey-text","136","846987","0.0-136.0","4711","{""Q0"":""Impractical""}","","","Practical","",""
"","","","","","html-slider-response","137","848226","0.0-137.0","1239","6","","","Practical","<div style=""width:500px;""> <p>How strongly do you feel that <strong>Impractical</strong> is a good fit for the opposite side of the <strong>Practical</strong> scale?</p></div>","4"
"","","","","","survey-text","138","864531","0.0-138.0","16303","{""Q0"":""content""}","","","Ambitious","",""
"","","","","","html-slider-response","139","865643","0.0-139.0","1111","7","","","Ambitious","<div style=""width:500px;""> <p>How strongly do you feel that <strong>content</strong> is a good fit for the opposite side of the <strong>Ambitious</strong> scale?</p></div>","4"
"","","","","","survey-text","140","865843","0.0-140.0","199","{""Q0"":""""}","","","Well-educated","",""
"","","","","","html-slider-response","141","869778","0.0-141.0","3935","1","","","Well-educated","<div style=""width:500px;""> <p>How strongly do you feel that <strong></strong> is a good fit for the opposite side of the <strong>Well-educated</strong> scale?</p></div>","4"
"","","","","","survey-text","142","876827","0.0-142.0","7047","{""Q0"":""Inflexible""}","","","Flexible","",""
"","","","","","html-slider-response","143","877842","0.0-143.0","1015","6","","","Flexible","<div style=""width:500px;""> <p>How strongly do you feel that <strong>Inflexible</strong> is a good fit for the opposite side of the <strong>Flexible</strong> scale?</p></div>","4"
"","","","","","survey-text","144","892459","0.0-144.0","14615","{""Q0"":""Unsure""}","","","Determined","",""
"","","","","","html-slider-response","145","894411","0.0-145.0","1951","7","","","Determined","<div style=""width:500px;""> <p>How strongly do you feel that <strong>Unsure</strong> is a good fit for the opposite side of the <strong>Determined</strong> scale?</p></div>","4"
"","","","","","survey-text","146","899779","0.0-146.0","5367","{""Q0"":""Passive""}","","","Aggressive","",""
"","","","","","html-slider-response","147","901315","0.0-147.0","1535","6","","","Aggressive","<div style=""width:500px;""> <p>How strongly do you feel that <strong>Passive</strong> is a good fit for the opposite side of the <strong>Aggressive</strong> scale?</p></div>","4"
"","","","","","survey-text","148","928643","0.0-148.0","27327","{""Q0"":""Dunce""}","","","Intellectual","",""
"","","","","","html-slider-response","149","930019","0.0-149.0","1375","7","","","Intellectual","<div style=""width:500px;""> <p>How strongly do you feel that <strong>Dunce</strong> is a good fit for the opposite side of the <strong>Intellectual</strong> scale?</p></div>","4"
"","","","","","survey-text","150","936411","0.0-150.0","6391","{""Q0"":""Eager""}","","","Patient","",""
"","","","","","html-slider-response","151","937819","0.0-151.0","1407","6","","","Patient","<div style=""width:500px;""> <p>How strongly do you feel that <strong>Eager</strong> is a good fit for the opposite side of the <strong>Patient</strong> scale?</p></div>","4"
"","","","","","survey-text","152","940763","0.0-152.0","2943","{""Q0"":""Weak""}","","","Strong","",""
"","","","","","html-slider-response","153","941875","0.0-153.0","1111","7","","","Strong","<div style=""width:500px;""> <p>How strongly do you feel that <strong>Weak</strong> is a good fit for the opposite side of the <strong>Strong</strong> scale?</p></div>","4"
"","","","","","survey-text","154","959723","0.0-154.0","17847","{""Q0"":""Apathetic""}","","","Intense","",""
"","","","","","html-slider-response","155","961675","0.0-155.0","1951","7","","","Intense","<div style=""width:500px;""> <p>How strongly do you feel that <strong>Apathetic</strong> is a good fit for the opposite side of the <strong>Intense</strong> scale?</p></div>","4"
"","","","","","survey-text","156","979387","0.0-156.0","17711","{""Q0"":""Undignified""}","","","Dignified","",""
"","","","","","html-slider-response","157","980747","0.0-157.0","1359","6","","","Dignified","<div style=""width:500px;""> <p>How strongly do you feel that <strong>Undignified</strong> is a good fit for the opposite side of the <strong>Dignified</strong> scale?</p></div>","4"
"","","","","","survey-text","158","986715","0.0-158.0","5967","{""Q0"":""Passive""}","","","Bossy","",""
"","","","","","html-slider-response","159","987979","0.0-159.0","1263","7","","","Bossy","<div style=""width:500px;""> <p>How strongly do you feel that <strong>Passive</strong> is a good fit for the opposite side of the <strong>Bossy</strong> scale?</p></div>","4"
"","","","","","survey-text","160","992243","0.0-160.0","4263","{""Q0"":""Insensitive""}","","","Sensitive","",""
"","","","","","html-slider-response","161","994587","0.0-161.0","2343","6","","","Sensitive","<div style=""width:500px;""> <p>How strongly do you feel that <strong>Insensitive</strong> is a good fit for the opposite side of the <strong>Sensitive</strong> scale?</p></div>","4"
"","","","","","survey-text","162","1010211","0.0-162.0","15623","{""Q0"":""Disarming""}","","","Defensive","",""
"","","","","","html-slider-response","163","1011915","0.0-163.0","1703","5","","","Defensive","<div style=""width:500px;""> <p>How strongly do you feel that <strong>Disarming</strong> is a good fit for the opposite side of the <strong>Defensive</strong> scale?</p></div>","4"
"","","","","","survey-text","164","1023819","0.0-164.0","11903","{""Q0"":""Lazy""}","","","Energetic","",""
"","","","","","html-slider-response","165","1025970","0.0-165.0","2151","5","","","Energetic","<div style=""width:500px;""> <p>How strongly do you feel that <strong>Lazy</strong> is a good fit for the opposite side of the <strong>Energetic</strong> scale?</p></div>","4"
"","","","","","survey-text","166","1041899","0.0-166.0","15927","{""Q0"":""Open-minded""}","","","Prejudiced","",""
"","","","","","html-slider-response","167","1043234","0.0-167.0","1335","6","","","Prejudiced","<div style=""width:500px;""> <p>How strongly do you feel that <strong>Open-minded</strong> is a good fit for the opposite side of the <strong>Prejudiced</strong> scale?</p></div>","4"
"","","","","","survey-text","168","1048411","0.0-168.0","5175","{""Q0"":""Masculine ""}","","","Feminine","",""
"","","","","","html-slider-response","169","1049922","0.0-169.0","1511","7","","","Feminine","<div style=""width:500px;""> <p>How strongly do you feel that <strong>Masculine </strong> is a good fit for the opposite side of the <strong>Feminine</strong> scale?</p></div>","4"
"","","","","","survey-text","170","1066674","0.0-170.0","16751","{""Q0"":""Uncommitted""}","","","Serious","",""
"","","","","","html-slider-response","171","1068860","0.0-171.0","2184","7","","","Serious","<div style=""width:500px;""> <p>How strongly do you feel that <strong>Uncommitted</strong> is a good fit for the opposite side of the <strong>Serious</strong> scale?</p></div>","4"
"","","","","","survey-text","172","1073387","0.0-172.0","4526","{""Q0"":""Observant""}","","","Unobservant","",""
"","","","","","html-slider-response","173","1075195","0.0-173.0","1807","7","","","Unobservant","<div style=""width:500px;""> <p>How strongly do you feel that <strong>Observant</strong> is a good fit for the opposite side of the <strong>Unobservant</strong> scale?</p></div>","4"
"","","","","","survey-text","174","1077611","0.0-174.0","2414","{""age"":""33""}","","","","",""
"","","","","","survey-multi-choice","175","1079115","0.0-175.0","1503","{""race"":""Asian""}","[0]","","","",""
"","","","","","survey-multi-choice","176","1086691","0.0-176.0","7574","{""hispanic"":""Not Hispanic or Latino"",""gender"":""Female"",""sexOrientation"":""Heterosexual or straight"",""education"":""Bachelor's degree""}","[0,1,2,3]","","","",""
