"success","timeout","failed_images","failed_audio","failed_video","trial_type","trial_index","time_elapsed","internal_node_id","rt","response","question_order","view_history","trait","stimulus","slider_start"
"true","false","[]","[]","[]","preload","0","1516","0.0-0.0","","","","","","",""
"","","","","","survey-text","1","6145","0.0-1.0","4628","{""Q0"":""5d63179aa3b94d0001da4bb6""}","","","","",""
"","","","","","survey-multi-choice","2","8500","0.0-2.0","2354","{""Eng"":""Yes""}","[0]","","","",""
"","","","","","instructions","3","14804","0.0-3.0","6301","","","[{""page_index"":0,""viewing_time"":3466},{""page_index"":1,""viewing_time"":2835}]","","",""
"","","","","","instructions","4","16377","0.0-4.0","1573","","","[{""page_index"":0,""viewing_time"":1573}]","","",""
"","","","","","instructions","5","35329","0.0-5.0","18951","","","[{""page_index"":0,""viewing_time"":1166},{""page_index"":1,""viewing_time"":16669},{""page_index"":2,""viewing_time"":1115}]","","",""
"","","","","","survey-text","6","57855","0.0-6.0","22523","{""Q0"":""Apathy""}","","","Empathetic","",""
"","","","","","html-slider-response","7","62687","0.0-7.0","4830","7","","","Empathetic","<div style=""width:500px;""> <p>How strongly do you feel that <strong>Apathy</strong> is a good fit for the opposite side of the <strong>Empathetic</strong> scale?</p></div>","4"
"","","","","","survey-text","8","68989","0.0-8.0","6300","{""Q0"":""pessimistic""}","","","Optimistic","",""
"","","","","","html-slider-response","9","71941","0.0-9.0","2951","7","","","Optimistic","<div style=""width:500px;""> <p>How strongly do you feel that <strong>pessimistic</strong> is a good fit for the opposite side of the <strong>Optimistic</strong> scale?</p></div>","4"
"","","","","","survey-text","10","80237","0.0-10.0","8293","{""Q0"":""Ignorant""}","","","Well-educated","",""
"","","","","","html-slider-response","11","82716","0.0-11.0","2478","6","","","Well-educated","<div style=""width:500px;""> <p>How strongly do you feel that <strong>Ignorant</strong> is a good fit for the opposite side of the <strong>Well-educated</strong> scale?</p></div>","4"
"","","","","","survey-text","12","108352","0.0-12.0","25634","{""Q0"":""untrustworthy""}","","","Trustworthy","",""
"","","","","","html-slider-response","13","112007","0.0-13.0","3655","7","","","Trustworthy","<div style=""width:500px;""> <p>How strongly do you feel that <strong>untrustworthy</strong> is a good fit for the opposite side of the <strong>Trustworthy</strong> scale?</p></div>","4"
"","","","","","survey-text","14","119681","0.0-14.0","7672","{""Q0"":""insensitive ""}","","","Sensitive","",""
"","","","","","html-slider-response","15","121221","0.0-15.0","1541","7","","","Sensitive","<div style=""width:500px;""> <p>How strongly do you feel that <strong>insensitive </strong> is a good fit for the opposite side of the <strong>Sensitive</strong> scale?</p></div>","4"
"","","","","","survey-text","16","143313","0.0-16.0","22089","{""Q0"":""Compliant""}","","","Rebellious","",""
"","","","","","html-slider-response","17","145913","0.0-17.0","2598","6","","","Rebellious","<div style=""width:500px;""> <p>How strongly do you feel that <strong>Compliant</strong> is a good fit for the opposite side of the <strong>Rebellious</strong> scale?</p></div>","4"
"","","","","","survey-text","18","149975","0.0-18.0","4054","{""Q0"":""Weak""}","","","Strong","",""
"","","","","","html-slider-response","19","151539","0.0-19.0","1563","7","","","Strong","<div style=""width:500px;""> <p>How strongly do you feel that <strong>Weak</strong> is a good fit for the opposite side of the <strong>Strong</strong> scale?</p></div>","4"
"","","","","","survey-text","20","170634","0.0-20.0","19093","{""Q0"":""Dull""}","","","Charismatic","",""
"","","","","","html-slider-response","21","173011","0.0-21.0","2376","5","","","Charismatic","<div style=""width:500px;""> <p>How strongly do you feel that <strong>Dull</strong> is a good fit for the opposite side of the <strong>Charismatic</strong> scale?</p></div>","4"
"","","","","","survey-text","22","179355","0.0-22.0","6342","{""Q0"":""Impractical""}","","","Practical","",""
"","","","","","html-slider-response","23","181389","0.0-23.0","2033","7","","","Practical","<div style=""width:500px;""> <p>How strongly do you feel that <strong>Impractical</strong> is a good fit for the opposite side of the <strong>Practical</strong> scale?</p></div>","4"
"","","","","","survey-text","24","202873","0.0-24.0","21481","{""Q0"":""proud""}","","","Jealous","",""
"","","","","","html-slider-response","25","205332","0.0-25.0","2459","6","","","Jealous","<div style=""width:500px;""> <p>How strongly do you feel that <strong>proud</strong> is a good fit for the opposite side of the <strong>Jealous</strong> scale?</p></div>","4"
"","","","","","survey-text","26","209178","0.0-26.0","3844","{""Q0"":""Kind""}","","","Mean","",""
"","","","","","html-slider-response","27","210569","0.0-27.0","1389","7","","","Mean","<div style=""width:500px;""> <p>How strongly do you feel that <strong>Kind</strong> is a good fit for the opposite side of the <strong>Mean</strong> scale?</p></div>","4"
"","","","","","survey-text","28","217742","0.0-28.0","7170","{""Q0"":""Observant""}","","","Unobservant","",""
"","","","","","html-slider-response","29","219278","0.0-29.0","1536","7","","","Unobservant","<div style=""width:500px;""> <p>How strongly do you feel that <strong>Observant</strong> is a good fit for the opposite side of the <strong>Unobservant</strong> scale?</p></div>","4"
"","","","","","survey-text","30","225354","0.0-30.0","6073","{""Q0"":""Unhelpful""}","","","Helpful","",""
"","","","","","html-slider-response","31","226715","0.0-31.0","1361","7","","","Helpful","<div style=""width:500px;""> <p>How strongly do you feel that <strong>Unhelpful</strong> is a good fit for the opposite side of the <strong>Helpful</strong> scale?</p></div>","4"
"","","","","","survey-text","32","233747","0.0-32.0","7029","{""Q0"":""Undignified""}","","","Dignified","",""
"","","","","","html-slider-response","33","235037","0.0-33.0","1289","7","","","Dignified","<div style=""width:500px;""> <p>How strongly do you feel that <strong>Undignified</strong> is a good fit for the opposite side of the <strong>Dignified</strong> scale?</p></div>","4"
"","","","","","survey-text","34","262358","0.0-34.0","27318","{""Q0"":""Uninterested""}","","","Curious","",""
"","","","","","html-slider-response","35","265112","0.0-35.0","2752","6","","","Curious","<div style=""width:500px;""> <p>How strongly do you feel that <strong>Uninterested</strong> is a good fit for the opposite side of the <strong>Curious</strong> scale?</p></div>","4"
"","","","","","survey-text","36","296316","0.0-36.0","31200","{""Q0"":""Happy""}","","","Grumpy","",""
"","","","","","html-slider-response","37","298352","0.0-37.0","2035","5","","","Grumpy","<div style=""width:500px;""> <p>How strongly do you feel that <strong>Happy</strong> is a good fit for the opposite side of the <strong>Grumpy</strong> scale?</p></div>","4"
"","","","","","survey-text","38","301931","0.0-38.0","3577","{""Q0"":""Neat""}","","","Disorderly","",""
"","","","","","html-slider-response","39","303239","0.0-39.0","1307","7","","","Disorderly","<div style=""width:500px;""> <p>How strongly do you feel that <strong>Neat</strong> is a good fit for the opposite side of the <strong>Disorderly</strong> scale?</p></div>","4"
"","","","","","survey-text","40","307431","0.0-40.0","4190","{""Q0"":""Dominant""}","","","Submissive","",""
"","","","","","html-slider-response","41","308693","0.0-41.0","1261","7","","","Submissive","<div style=""width:500px;""> <p>How strongly do you feel that <strong>Dominant</strong> is a good fit for the opposite side of the <strong>Submissive</strong> scale?</p></div>","4"
"","","","","","survey-text","42","315680","0.0-42.0","6985","{""Q0"":""Inarticulate""}","","","Articulate","",""
"","","","","","html-slider-response","43","317513","0.0-43.0","1832","7","","","Articulate","<div style=""width:500px;""> <p>How strongly do you feel that <strong>Inarticulate</strong> is a good fit for the opposite side of the <strong>Articulate</strong> scale?</p></div>","4"
"","","","","","survey-text","44","322156","0.0-44.0","4641","{""Q0"":""Dependent""}","","","Independent","",""
"","","","","","html-slider-response","45","323427","0.0-45.0","1269","7","","","Independent","<div style=""width:500px;""> <p>How strongly do you feel that <strong>Dependent</strong> is a good fit for the opposite side of the <strong>Independent</strong> scale?</p></div>","4"
"","","","","","survey-text","46","327005","0.0-46.0","3575","{""Q0"":""Ugly""}","","","Beautiful","",""
"","","","","","html-slider-response","47","328366","0.0-47.0","1359","7","","","Beautiful","<div style=""width:500px;""> <p>How strongly do you feel that <strong>Ugly</strong> is a good fit for the opposite side of the <strong>Beautiful</strong> scale?</p></div>","4"
"","","","","","survey-text","48","333184","0.0-48.0","4816","{""Q0"":""Dumb""}","","","Clever","",""
"","","","","","html-slider-response","49","334741","0.0-49.0","1556","7","","","Clever","<div style=""width:500px;""> <p>How strongly do you feel that <strong>Dumb</strong> is a good fit for the opposite side of the <strong>Clever</strong> scale?</p></div>","4"
"","","","","","survey-text","50","352732","0.0-50.0","17987","{""Q0"":""Flippant""}","","","Serious","",""
"","","","","","html-slider-response","51","354911","0.0-51.0","2178","6","","","Serious","<div style=""width:500px;""> <p>How strongly do you feel that <strong>Flippant</strong> is a good fit for the opposite side of the <strong>Serious</strong> scale?</p></div>","4"
"","","","","","survey-text","52","359126","0.0-52.0","4212","{""Q0"":""Tense""}","","","Easygoing","",""
"","","","","","html-slider-response","53","361296","0.0-53.0","2168","5","","","Easygoing","<div style=""width:500px;""> <p>How strongly do you feel that <strong>Tense</strong> is a good fit for the opposite side of the <strong>Easygoing</strong> scale?</p></div>","4"
"","","","","","survey-text","54","379255","0.0-54.0","17958","{""Q0"":""Unconcerned""}","","","Anxious","",""
"","","","","","html-slider-response","55","380761","0.0-55.0","1504","6","","","Anxious","<div style=""width:500px;""> <p>How strongly do you feel that <strong>Unconcerned</strong> is a good fit for the opposite side of the <strong>Anxious</strong> scale?</p></div>","4"
"","","","","","survey-text","56","385896","0.0-56.0","5132","{""Q0"":""Lethargic""}","","","Energetic","",""
"","","","","","html-slider-response","57","387380","0.0-57.0","1484","6","","","Energetic","<div style=""width:500px;""> <p>How strongly do you feel that <strong>Lethargic</strong> is a good fit for the opposite side of the <strong>Energetic</strong> scale?</p></div>","4"
"","","","","","survey-text","58","390583","0.0-58.0","3200","{""Q0"":""Cold""}","","","Affectionate","",""
"","","","","","html-slider-response","59","391911","0.0-59.0","1324","7","","","Affectionate","<div style=""width:500px;""> <p>How strongly do you feel that <strong>Cold</strong> is a good fit for the opposite side of the <strong>Affectionate</strong> scale?</p></div>","4"
"","","","","","survey-text","60","395675","0.0-60.0","3762","{""Q0"":""Masculine""}","","","Feminine","",""
"","","","","","html-slider-response","61","397367","0.0-61.0","1690","7","","","Feminine","<div style=""width:500px;""> <p>How strongly do you feel that <strong>Masculine</strong> is a good fit for the opposite side of the <strong>Feminine</strong> scale?</p></div>","4"
"","","","","","survey-text","62","419284","0.0-62.0","21916","{""Q0"":""Unbiased""}","","","Prejudiced","",""
"","","","","","html-slider-response","63","421622","0.0-63.0","2335","7","","","Prejudiced","<div style=""width:500px;""> <p>How strongly do you feel that <strong>Unbiased</strong> is a good fit for the opposite side of the <strong>Prejudiced</strong> scale?</p></div>","4"
"","","","","","survey-text","64","426172","0.0-64.0","4548","{""Q0"":""Unethical""}","","","Ethical","",""
"","","","","","html-slider-response","65","428047","0.0-65.0","1874","7","","","Ethical","<div style=""width:500px;""> <p>How strongly do you feel that <strong>Unethical</strong> is a good fit for the opposite side of the <strong>Ethical</strong> scale?</p></div>","4"
"","","","","","survey-text","66","432721","0.0-66.0","4670","{""Q0"":""Antisocial""}","","","Sociable","",""
"","","","","","html-slider-response","67","433877","0.0-67.0","1157","7","","","Sociable","<div style=""width:500px;""> <p>How strongly do you feel that <strong>Antisocial</strong> is a good fit for the opposite side of the <strong>Sociable</strong> scale?</p></div>","4"
"","","","","","survey-text","68","437454","0.0-68.0","3575","{""Q0"":""Impatient""}","","","Patient","",""
"","","","","","html-slider-response","69","440120","0.0-69.0","2664","7","","","Patient","<div style=""width:500px;""> <p>How strongly do you feel that <strong>Impatient</strong> is a good fit for the opposite side of the <strong>Patient</strong> scale?</p></div>","4"
"","","","","","survey-text","70","460683","0.0-70.0","20561","{""Q0"":""Confident""}","","","Defensive","",""
"","","","","","html-slider-response","71","462483","0.0-71.0","1798","5","","","Defensive","<div style=""width:500px;""> <p>How strongly do you feel that <strong>Confident</strong> is a good fit for the opposite side of the <strong>Defensive</strong> scale?</p></div>","4"
"","","","","","survey-text","72","483762","0.0-72.0","21275","{""Q0"":""Occasional""}","","","Persistent","",""
"","","","","","html-slider-response","73","485911","0.0-73.0","2148","6","","","Persistent","<div style=""width:500px;""> <p>How strongly do you feel that <strong>Occasional</strong> is a good fit for the opposite side of the <strong>Persistent</strong> scale?</p></div>","4"
"","","","","","survey-text","74","508178","0.0-74.0","22265","{""Q0"":""Proud""}","","","Humble","",""
"","","","","","html-slider-response","75","509648","0.0-75.0","1470","6","","","Humble","<div style=""width:500px;""> <p>How strongly do you feel that <strong>Proud</strong> is a good fit for the opposite side of the <strong>Humble</strong> scale?</p></div>","4"
"","","","","","survey-text","76","516843","0.0-76.0","7193","{""Q0"":""Submissive""}","","","Bossy","",""
"","","","","","html-slider-response","77","519150","0.0-77.0","2305","6","","","Bossy","<div style=""width:500px;""> <p>How strongly do you feel that <strong>Submissive</strong> is a good fit for the opposite side of the <strong>Bossy</strong> scale?</p></div>","4"
"","","","","","survey-text","78","536636","0.0-78.0","17484","{""Q0"":""Dumb""}","","","Intellectual","",""
"","","","","","html-slider-response","79","539176","0.0-79.0","2539","4","","","Intellectual","<div style=""width:500px;""> <p>How strongly do you feel that <strong>Dumb</strong> is a good fit for the opposite side of the <strong>Intellectual</strong> scale?</p></div>","4"
"","","","","","survey-text","80","543780","0.0-80.0","4602","{""Q0"":""Different""}","","","Traditional","",""
"","","","","","html-slider-response","81","546421","0.0-81.0","2642","5","","","Traditional","<div style=""width:500px;""> <p>How strongly do you feel that <strong>Different</strong> is a good fit for the opposite side of the <strong>Traditional</strong> scale?</p></div>","4"
"","","","","","survey-text","82","564339","0.0-82.0","17917","{""Q0"":""Respectful""}","","","Condescending","",""
"","","","","","html-slider-response","83","565761","0.0-83.0","1421","7","","","Condescending","<div style=""width:500px;""> <p>How strongly do you feel that <strong>Respectful</strong> is a good fit for the opposite side of the <strong>Condescending</strong> scale?</p></div>","4"
"","","","","","survey-text","84","570549","0.0-84.0","4786","{""Q0"":""Unhealthy""}","","","Healthy","",""
"","","","","","html-slider-response","85","571892","0.0-85.0","1342","7","","","Healthy","<div style=""width:500px;""> <p>How strongly do you feel that <strong>Unhealthy</strong> is a good fit for the opposite side of the <strong>Healthy</strong> scale?</p></div>","4"
"","","","","","survey-text","86","577927","0.0-86.0","6033","{""Q0"":""Cowardly""}","","","Courageous","",""
"","","","","","html-slider-response","87","579176","0.0-87.0","1249","7","","","Courageous","<div style=""width:500px;""> <p>How strongly do you feel that <strong>Cowardly</strong> is a good fit for the opposite side of the <strong>Courageous</strong> scale?</p></div>","4"
"","","","","","survey-text","88","596860","0.0-88.0","17683","{""Q0"":""Undetermined""}","","","Determined","",""
"","","","","","html-slider-response","89","598580","0.0-89.0","1719","5","","","Determined","<div style=""width:500px;""> <p>How strongly do you feel that <strong>Undetermined</strong> is a good fit for the opposite side of the <strong>Determined</strong> scale?</p></div>","4"
"","","","","","survey-text","90","612648","0.0-90.0","14066","{""Q0"":""Boring""}","","","Ambitious","",""
"","","","","","html-slider-response","91","613926","0.0-91.0","1278","5","","","Ambitious","<div style=""width:500px;""> <p>How strongly do you feel that <strong>Boring</strong> is a good fit for the opposite side of the <strong>Ambitious</strong> scale?</p></div>","4"
"","","","","","survey-text","92","629735","0.0-92.0","15806","{""Q0"":""Steady""}","","","Compulsive","",""
"","","","","","html-slider-response","93","631148","0.0-93.0","1413","5","","","Compulsive","<div style=""width:500px;""> <p>How strongly do you feel that <strong>Steady</strong> is a good fit for the opposite side of the <strong>Compulsive</strong> scale?</p></div>","4"
"","","","","","survey-text","94","635658","0.0-94.0","4506","{""Q0"":""Unnatural""}","","","Natural","",""
"","","","","","html-slider-response","95","638578","0.0-95.0","2918","7","","","Natural","<div style=""width:500px;""> <p>How strongly do you feel that <strong>Unnatural</strong> is a good fit for the opposite side of the <strong>Natural</strong> scale?</p></div>","4"
"","","","","","survey-text","96","645815","0.0-96.0","7235","{""Q0"":""Insincere""}","","","Sincere","",""
"","","","","","html-slider-response","97","647728","0.0-97.0","1912","7","","","Sincere","<div style=""width:500px;""> <p>How strongly do you feel that <strong>Insincere</strong> is a good fit for the opposite side of the <strong>Sincere</strong> scale?</p></div>","4"
"","","","","","survey-text","98","652699","0.0-98.0","4969","{""Q0"":""Unreasonable""}","","","Reasonable","",""
"","","","","","html-slider-response","99","654183","0.0-99.0","1483","7","","","Reasonable","<div style=""width:500px;""> <p>How strongly do you feel that <strong>Unreasonable</strong> is a good fit for the opposite side of the <strong>Reasonable</strong> scale?</p></div>","4"
"","","","","","survey-text","100","663908","0.0-100.0","9722","{""Q0"":""Mellow""}","","","Aggressive","",""
"","","","","","html-slider-response","101","666522","0.0-101.0","2612","4","","","Aggressive","<div style=""width:500px;""> <p>How strongly do you feel that <strong>Mellow</strong> is a good fit for the opposite side of the <strong>Aggressive</strong> scale?</p></div>","4"
"","","","","","survey-text","102","672373","0.0-102.0","5848","{""Q0"":""Unconfident""}","","","Confident","",""
"","","","","","html-slider-response","103","674196","0.0-103.0","1822","7","","","Confident","<div style=""width:500px;""> <p>How strongly do you feel that <strong>Unconfident</strong> is a good fit for the opposite side of the <strong>Confident</strong> scale?</p></div>","4"
"","","","","","survey-text","104","689585","0.0-104.0","15386","{""Q0"":""Foolish""}","","","Wise","",""
"","","","","","html-slider-response","105","691201","0.0-105.0","1615","7","","","Wise","<div style=""width:500px;""> <p>How strongly do you feel that <strong>Foolish</strong> is a good fit for the opposite side of the <strong>Wise</strong> scale?</p></div>","4"
"","","","","","survey-text","106","704276","0.0-106.0","13075","{""Q0"":""Lenient""}","","","Strict","",""
"","","","","","html-slider-response","107","706333","0.0-107.0","2055","7","","","Strict","<div style=""width:500px;""> <p>How strongly do you feel that <strong>Lenient</strong> is a good fit for the opposite side of the <strong>Strict</strong> scale?</p></div>","4"
"","","","","","survey-text","108","711972","0.0-108.0","5637","{""Q0"":""Uncreative""}","","","Creative","",""
"","","","","","html-slider-response","109","713671","0.0-109.0","1699","6","","","Creative","<div style=""width:500px;""> <p>How strongly do you feel that <strong>Uncreative</strong> is a good fit for the opposite side of the <strong>Creative</strong> scale?</p></div>","4"
"","","","","","survey-text","110","716503","0.0-110.0","2830","{""Q0"":""Old""}","","","Youthful","",""
"","","","","","html-slider-response","111","719301","0.0-111.0","2797","6","","","Youthful","<div style=""width:500px;""> <p>How strongly do you feel that <strong>Old</strong> is a good fit for the opposite side of the <strong>Youthful</strong> scale?</p></div>","4"
"","","","","","survey-text","112","734339","0.0-112.0","15034","{""Q0"":""Superficial""}","","","Thoughtful","",""
"","","","","","html-slider-response","113","736428","0.0-113.0","2088","7","","","Thoughtful","<div style=""width:500px;""> <p>How strongly do you feel that <strong>Superficial</strong> is a good fit for the opposite side of the <strong>Thoughtful</strong> scale?</p></div>","4"
"","","","","","survey-text","114","743847","0.0-114.0","7417","{""Q0"":""Sporadic""}","","","Consistent","",""
"","","","","","html-slider-response","115","747758","0.0-115.0","3910","7","","","Consistent","<div style=""width:500px;""> <p>How strongly do you feel that <strong>Sporadic</strong> is a good fit for the opposite side of the <strong>Consistent</strong> scale?</p></div>","4"
"","","","","","survey-text","116","763098","0.0-116.0","15338","{""Q0"":""Sure""}","","","Skeptical","",""
"","","","","","html-slider-response","117","765411","0.0-117.0","2312","7","","","Skeptical","<div style=""width:500px;""> <p>How strongly do you feel that <strong>Sure</strong> is a good fit for the opposite side of the <strong>Skeptical</strong> scale?</p></div>","4"
"","","","","","survey-text","118","770630","0.0-118.0","5217","{""Q0"":""Egotistical""}","","","Self-pitying","",""
"","","","","","html-slider-response","119","772227","0.0-119.0","1595","5","","","Self-pitying","<div style=""width:500px;""> <p>How strongly do you feel that <strong>Egotistical</strong> is a good fit for the opposite side of the <strong>Self-pitying</strong> scale?</p></div>","4"
"","","","","","survey-text","120","790002","0.0-120.0","17774","{""Q0"":""Complementary""}","","","Critical","",""
"","","","","","html-slider-response","121","793116","0.0-121.0","3114","7","","","Critical","<div style=""width:500px;""> <p>How strongly do you feel that <strong>Complementary</strong> is a good fit for the opposite side of the <strong>Critical</strong> scale?</p></div>","4"
"","","","","","survey-text","122","807789","0.0-122.0","14671","{""Q0"":""Mild""}","","","Intense","",""
"","","","","","html-slider-response","123","809306","0.0-123.0","1514","6","","","Intense","<div style=""width:500px;""> <p>How strongly do you feel that <strong>Mild</strong> is a good fit for the opposite side of the <strong>Intense</strong> scale?</p></div>","4"
"","","","","","survey-text","124","827242","0.0-124.0","17935","{""Q0"":""Calm""}","","","Angry","",""
"","","","","","html-slider-response","125","828706","0.0-125.0","1463","6","","","Angry","<div style=""width:500px;""> <p>How strongly do you feel that <strong>Calm</strong> is a good fit for the opposite side of the <strong>Angry</strong> scale?</p></div>","4"
"","","","","","survey-text","126","835655","0.0-126.0","6947","{""Q0"":""Respectful""}","","","Ignorant","",""
"","","","","","html-slider-response","127","837026","0.0-127.0","1371","6","","","Ignorant","<div style=""width:500px;""> <p>How strongly do you feel that <strong>Respectful</strong> is a good fit for the opposite side of the <strong>Ignorant</strong> scale?</p></div>","4"
"","","","","","survey-text","128","858449","0.0-128.0","21420","{""Q0"":""Atheistic""}","","","Religious","",""
"","","","","","html-slider-response","129","860455","0.0-129.0","2005","7","","","Religious","<div style=""width:500px;""> <p>How strongly do you feel that <strong>Atheistic</strong> is a good fit for the opposite side of the <strong>Religious</strong> scale?</p></div>","4"
"","","","","","survey-text","130","865919","0.0-130.0","5460","{""Q0"":""Irresponsible""}","","","Responsible","",""
"","","","","","html-slider-response","131","867701","0.0-131.0","1781","7","","","Responsible","<div style=""width:500px;""> <p>How strongly do you feel that <strong>Irresponsible</strong> is a good fit for the opposite side of the <strong>Responsible</strong> scale?</p></div>","4"
"","","","","","survey-text","132","883294","0.0-132.0","15591","{""Q0"":""Typical""}","","","Atypical","",""
"","","","","","html-slider-response","133","885805","0.0-133.0","2510","7","","","Atypical","<div style=""width:500px;""> <p>How strongly do you feel that <strong>Typical</strong> is a good fit for the opposite side of the <strong>Atypical</strong> scale?</p></div>","4"
"","","","","","survey-text","134","891195","0.0-134.0","5388","{""Q0"":""Immature""}","","","Mature","",""
"","","","","","html-slider-response","135","892526","0.0-135.0","1329","7","","","Mature","<div style=""width:500px;""> <p>How strongly do you feel that <strong>Immature</strong> is a good fit for the opposite side of the <strong>Mature</strong> scale?</p></div>","4"
"","","","","","survey-text","136","908637","0.0-136.0","16109","{""Q0"":""Kind""}","","","Abusive","",""
"","","","","","html-slider-response","137","909952","0.0-137.0","1313","5","","","Abusive","<div style=""width:500px;""> <p>How strongly do you feel that <strong>Kind</strong> is a good fit for the opposite side of the <strong>Abusive</strong> scale?</p></div>","4"
"","","","","","survey-text","138","913880","0.0-138.0","3925","{""Q0"":""Normal""}","","","Weird","",""
"","","","","","html-slider-response","139","916993","0.0-139.0","3112","6","","","Weird","<div style=""width:500px;""> <p>How strongly do you feel that <strong>Normal</strong> is a good fit for the opposite side of the <strong>Weird</strong> scale?</p></div>","4"
"","","","","","survey-text","140","923366","0.0-140.0","6371","{""Q0"":""Friendly""}","","","Combative","",""
"","","","","","html-slider-response","141","925302","0.0-141.0","1934","6","","","Combative","<div style=""width:500px;""> <p>How strongly do you feel that <strong>Friendly</strong> is a good fit for the opposite side of the <strong>Combative</strong> scale?</p></div>","4"
"","","","","","survey-text","142","929425","0.0-142.0","4120","{""Q0"":""Tacit""}","","","Outspoken","",""
"","","","","","html-slider-response","143","931577","0.0-143.0","2150","6","","","Outspoken","<div style=""width:500px;""> <p>How strongly do you feel that <strong>Tacit</strong> is a good fit for the opposite side of the <strong>Outspoken</strong> scale?</p></div>","4"
"","","","","","survey-text","144","952732","0.0-144.0","21153","{""Q0"":""self-compassion""}","","","Self-critical","",""
"","","","","","html-slider-response","145","954483","0.0-145.0","1749","5","","","Self-critical","<div style=""width:500px;""> <p>How strongly do you feel that <strong>self-compassion</strong> is a good fit for the opposite side of the <strong>Self-critical</strong> scale?</p></div>","4"
"","","","","","survey-text","146","959280","0.0-146.0","4796","{""Q0"":""Incompetent""}","","","Competent","",""
"","","","","","html-slider-response","147","961922","0.0-147.0","2642","7","","","Competent","<div style=""width:500px;""> <p>How strongly do you feel that <strong>Incompetent</strong> is a good fit for the opposite side of the <strong>Competent</strong> scale?</p></div>","4"
"","","","","","survey-text","148","966436","0.0-148.0","4512","{""Q0"":""Kind""}","","","Cruel","",""
"","","","","","html-slider-response","149","968401","0.0-149.0","1964","7","","","Cruel","<div style=""width:500px;""> <p>How strongly do you feel that <strong>Kind</strong> is a good fit for the opposite side of the <strong>Cruel</strong> scale?</p></div>","4"
"","","","","","survey-text","150","972891","0.0-150.0","4488","{""Q0"":""Unemotional""}","","","Emotional","",""
"","","","","","html-slider-response","151","974090","0.0-151.0","1197","7","","","Emotional","<div style=""width:500px;""> <p>How strongly do you feel that <strong>Unemotional</strong> is a good fit for the opposite side of the <strong>Emotional</strong> scale?</p></div>","4"
"","","","","","survey-text","152","978776","0.0-152.0","4682","{""Q0"":""Aggressive""}","","","Passive","",""
"","","","","","html-slider-response","153","980567","0.0-153.0","1789","7","","","Passive","<div style=""width:500px;""> <p>How strongly do you feel that <strong>Aggressive</strong> is a good fit for the opposite side of the <strong>Passive</strong> scale?</p></div>","4"
"","","","","","survey-text","154","995668","0.0-154.0","15099","{""Q0"":""Permissive""}","","","Prudish","",""
"","","","","","html-slider-response","155","998990","0.0-155.0","3321","6","","","Prudish","<div style=""width:500px;""> <p>How strongly do you feel that <strong>Permissive</strong> is a good fit for the opposite side of the <strong>Prudish</strong> scale?</p></div>","4"
"","","","","","survey-text","156","1001183","0.0-156.0","2191","{""Q0"":""Sad""}","","","Happy","",""
"","","","","","html-slider-response","157","1003208","0.0-157.0","2024","7","","","Happy","<div style=""width:500px;""> <p>How strongly do you feel that <strong>Sad</strong> is a good fit for the opposite side of the <strong>Happy</strong> scale?</p></div>","4"
"","","","","","survey-text","158","1007814","0.0-158.0","4601","{""Q0"":""Closed-minded""}","","","Open-minded","",""
"","","","","","html-slider-response","159","1009022","0.0-159.0","1208","6","","","Open-minded","<div style=""width:500px;""> <p>How strongly do you feel that <strong>Closed-minded</strong> is a good fit for the opposite side of the <strong>Open-minded</strong> scale?</p></div>","4"
"","","","","","survey-text","160","1026612","0.0-160.0","17588","{""Q0"":""Casual""}","","","Conscientious","",""
"","","","","","html-slider-response","161","1027838","0.0-161.0","1225","5","","","Conscientious","<div style=""width:500px;""> <p>How strongly do you feel that <strong>Casual</strong> is a good fit for the opposite side of the <strong>Conscientious</strong> scale?</p></div>","4"
"","","","","","survey-text","162","1033243","0.0-162.0","5402","{""Q0"":""Careless""}","","","Careful","",""
"","","","","","html-slider-response","163","1034890","0.0-163.0","1646","7","","","Careful","<div style=""width:500px;""> <p>How strongly do you feel that <strong>Careless</strong> is a good fit for the opposite side of the <strong>Careful</strong> scale?</p></div>","4"
"","","","","","survey-text","164","1051571","0.0-164.0","16679","{""Q0"":""Apathetic""}","","","Enthusiastic","",""
"","","","","","html-slider-response","165","1053393","0.0-165.0","1819","7","","","Enthusiastic","<div style=""width:500px;""> <p>How strongly do you feel that <strong>Apathetic</strong> is a good fit for the opposite side of the <strong>Enthusiastic</strong> scale?</p></div>","4"
"","","","","","survey-text","166","1056799","0.0-166.0","3405","{""Q0"":""Rigid""}","","","Flexible","",""
"","","","","","html-slider-response","167","1060211","0.0-167.0","3412","7","","","Flexible","<div style=""width:500px;""> <p>How strongly do you feel that <strong>Rigid</strong> is a good fit for the opposite side of the <strong>Flexible</strong> scale?</p></div>","4"
"","","","","","survey-text","168","1067997","0.0-168.0","7784","{""Q0"":""Disagreeable""}","","","Agreeable","",""
"","","","","","html-slider-response","169","1069669","0.0-169.0","1670","7","","","Agreeable","<div style=""width:500px;""> <p>How strongly do you feel that <strong>Disagreeable</strong> is a good fit for the opposite side of the <strong>Agreeable</strong> scale?</p></div>","4"
"","","","","","survey-text","170","1085270","0.0-170.0","15600","{""Q0"":""Ingenuous""}","","","Manipulative","",""
"","","","","","html-slider-response","171","1089185","0.0-171.0","3914","7","","","Manipulative","<div style=""width:500px;""> <p>How strongly do you feel that <strong>Ingenuous</strong> is a good fit for the opposite side of the <strong>Manipulative</strong> scale?</p></div>","4"
"","","","","","survey-text","172","1093052","0.0-172.0","3865","{""Q0"":""Tardy""}","","","Punctual","",""
"","","","","","html-slider-response","173","1099688","0.0-173.0","6634","7","","","Punctual","<div style=""width:500px;""> <p>How strongly do you feel that <strong>Tardy</strong> is a good fit for the opposite side of the <strong>Punctual</strong> scale?</p></div>","4"
"","","","","","survey-text","174","1103288","0.0-174.0","3598","{""age"":""60""}","","","","",""
"","","","","","survey-multi-choice","175","1105561","0.0-175.0","2272","{""race"":""White""}","[0]","","","",""
"","","","","","survey-multi-choice","176","1115536","0.0-176.0","9973","{""hispanic"":""Not Hispanic or Latino"",""gender"":""Female"",""sexOrientation"":""Heterosexual or straight"",""education"":""Associates degree""}","[0,1,2,3]","","","",""
