"mobile","browser","trial_type","trial_index","time_elapsed","internal_node_id","success","rt","width","height","stimulus","response","box_width","box_height","timeout","failed_images","failed_audio","failed_video","trial_name","button_order","categories","mouse_tracking_data","mouse_tracking_targets","too_fast","too_slow","fullscreen"
"false","chrome","browser-check","0","1","0.0-0.0","","","","","","","","","","","","","","","","","","","",""
"","","fullscreen","1","1797","0.0-1.0","true","790","","","","","","","","","","","","","","","","","",""
"","","browser-check","2","1797","0.0-2.0","","","1280","720","","","","","","","","","","","","","","","",""
"","","html-button-response","3","2466","0.0-3.0","","668","","","You will be shown ???. Please ???.","0","800","600","","","","","","","","","","","",""
"","","preload","4","2496","0.0-4.0","true","","","","","","","","false","[]","[]","[]","","","","","","","",""
"","","html-button-response","5","3084","0.0-5.0-0.0","","587","","","<div id=""mousetracking-container"" style=""border:2px solid transparent; border-color: #ccc; position: absolute; width: 800px; height: 600px; transform: translate(-50%, -50%); top: 50%; left: 50%;""></div><button class=""jspsych-btn"" style=""position: absolute; top: 50%; left: 50%; transform: translate(-50%, -50%); margin-left: -250px; margin-top: -200px; width: 120px; height: 60px; font-size: 20px;""'>BLACK</button><button class=""jspsych-btn"" style=""position: absolute; top: 50%; left: 50%; transform: translate(-50%, -50%); margin-left: 250px; margin-top: -200px; width: 120px; height: 60px; font-size: 20px;""'>WHITE</button>","0","","","","","","","","","","","","","",""
"","","html-button-response","6","4340","0.0-5.0-1.0","","1254","","","[""<div id=\""mousetracking-container\"" style=\""border:2px solid transparent; border-color: #ccc; position: absolute; width: 800px; height: 600px; transform: translate(-50%, -50%); top: 50%; left: 50%;\""></div><img src='images/white/w6.png' style='position:absolute; top: 50%; left: 50%; transform: translate(-50%, -50%); margin-top: 200px; width: nullpx; height: nullpx'>""]","1","","","","","","","mouseTrackQuestion","[""BLACK"",""WHITE""]","[""black"",""white""]","[{""x"":634,""y"":551,""t"":643,""event"":""mousemove""},{""x"":636,""y"":545,""t"":649,""event"":""mousemove""},{""x"":640,""y"":537,""t"":661,""event"":""mousemove""},{""x"":653,""y"":510,""t"":678,""event"":""mousemove""},{""x"":664,""y"":489,""t"":695,""event"":""mousemove""},{""x"":684,""y"":454,""t"":711,""event"":""mousemove""},{""x"":708,""y"":418,""t"":728,""event"":""mousemove""},{""x"":740,""y"":372,""t"":745,""event"":""mousemove""},{""x"":759,""y"":344,""t"":762,""event"":""mousemove""},{""x"":780,""y"":316,""t"":778,""event"":""mousemove""},{""x"":806,""y"":282,""t"":795,""event"":""mousemove""},{""x"":817,""y"":266,""t"":812,""event"":""mousemove""},{""x"":826,""y"":252,""t"":828,""event"":""mousemove""},{""x"":837,""y"":238,""t"":845,""event"":""mousemove""},{""x"":842,""y"":231,""t"":862,""event"":""mousemove""},{""x"":850,""y"":222,""t"":878,""event"":""mousemove""},{""x"":854,""y"":217,""t"":895,""event"":""mousemove""},{""x"":858,""y"":212,""t"":912,""event"":""mousemove""},{""x"":862,""y"":204,""t"":929,""event"":""mousemove""},{""x"":865,""y"":201,""t"":945,""event"":""mousemove""},{""x"":867,""y"":198,""t"":961,""event"":""mousemove""},{""x"":868,""y"":197,""t"":978,""event"":""mousemove""},{""x"":868,""y"":196,""t"":1045,""event"":""mousemove""},{""x"":869,""y"":196,""t"":1062,""event"":""mousemove""},{""x"":871,""y"":192,""t"":1078,""event"":""mousemove""},{""x"":876,""y"":186,""t"":1095,""event"":""mousemove""},{""x"":880,""y"":178,""t"":1112,""event"":""mousemove""},{""x"":887,""y"":167,""t"":1128,""event"":""mousemove""},{""x"":889,""y"":162,""t"":1145,""event"":""mousemove""},{""x"":890,""y"":160,""t"":1162,""event"":""mousemove""},{""x"":891,""y"":159,""t"":1177,""event"":""mousemove""}]","{""#mousetracking-container"":{""x"":238,""y"":58,""width"":804,""height"":604,""top"":58,""right"":1042,""bottom"":662,""left"":238}}","false","false","true"
"","","html-button-response","7","5604","0.0-5.0-0.1","","1263","","","<div id=""mousetracking-container"" style=""border:2px solid transparent; border-color: #ccc; position: absolute; width: 800px; height: 600px; transform: translate(-50%, -50%); top: 50%; left: 50%;""></div><button class=""jspsych-btn"" style=""position: absolute; top: 50%; left: 50%; transform: translate(-50%, -50%); margin-left: -250px; margin-top: -200px; width: 120px; height: 60px; font-size: 20px;""'>BLACK</button><button class=""jspsych-btn"" style=""position: absolute; top: 50%; left: 50%; transform: translate(-50%, -50%); margin-left: 250px; margin-top: -200px; width: 120px; height: 60px; font-size: 20px;""'>WHITE</button>","0","","","","","","","","","","","","","",""
"","","html-button-response","8","6932","0.0-5.0-1.1","","1327","","","[""<div id=\""mousetracking-container\"" style=\""border:2px solid transparent; border-color: #ccc; position: absolute; width: 800px; height: 600px; transform: translate(-50%, -50%); top: 50%; left: 50%;\""></div><img src='images/black/b6.png' style='position:absolute; top: 50%; left: 50%; transform: translate(-50%, -50%); margin-top: 200px; width: nullpx; height: nullpx'>""]","0","","","","","","","mouseTrackQuestion","[""BLACK"",""WHITE""]","[""black"",""white""]","[{""x"":620,""y"":456,""t"":778,""event"":""mousemove""},{""x"":606,""y"":437,""t"":792,""event"":""mousemove""},{""x"":586,""y"":410,""t"":809,""event"":""mousemove""},{""x"":558,""y"":371,""t"":827,""event"":""mousemove""},{""x"":540,""y"":341,""t"":843,""event"":""mousemove""},{""x"":523,""y"":310,""t"":859,""event"":""mousemove""},{""x"":498,""y"":271,""t"":876,""event"":""mousemove""},{""x"":483,""y"":245,""t"":892,""event"":""mousemove""},{""x"":464,""y"":213,""t"":909,""event"":""mousemove""},{""x"":452,""y"":195,""t"":926,""event"":""mousemove""},{""x"":443,""y"":181,""t"":943,""event"":""mousemove""},{""x"":431,""y"":163,""t"":959,""event"":""mousemove""},{""x"":423,""y"":154,""t"":976,""event"":""mousemove""},{""x"":414,""y"":143,""t"":994,""event"":""mousemove""},{""x"":410,""y"":139,""t"":1009,""event"":""mousemove""},{""x"":405,""y"":133,""t"":1026,""event"":""mousemove""},{""x"":400,""y"":126,""t"":1042,""event"":""mousemove""},{""x"":398,""y"":122,""t"":1059,""event"":""mousemove""},{""x"":395,""y"":119,""t"":1076,""event"":""mousemove""},{""x"":392,""y"":115,""t"":1092,""event"":""mousemove""},{""x"":390,""y"":113,""t"":1109,""event"":""mousemove""},{""x"":387,""y"":110,""t"":1126,""event"":""mousemove""},{""x"":386,""y"":107,""t"":1143,""event"":""mousemove""},{""x"":382,""y"":103,""t"":1160,""event"":""mousemove""},{""x"":379,""y"":99,""t"":1176,""event"":""mousemove""},{""x"":377,""y"":96,""t"":1193,""event"":""mousemove""},{""x"":375,""y"":93,""t"":1209,""event"":""mousemove""},{""x"":374,""y"":89,""t"":1226,""event"":""mousemove""},{""x"":373,""y"":88,""t"":1235,""event"":""mousemove""}]","{""#mousetracking-container"":{""x"":230.33334350585938,""y"":-26.33333396911621,""width"":804,""height"":604,""top"":-26.33333396911621,""right"":1034.3333435058594,""bottom"":577.6666660308838,""left"":230.33334350585938}}","false","false","false"
"","","fullscreen","9","9494","0.0-5.0-4.1-0.1","true","1559","","","","","","","","","","","","","","","","","",""
"","","html-button-response","10","9988","0.0-5.0-0.2","","493","","","<div id=""mousetracking-container"" style=""border:2px solid transparent; border-color: #ccc; position: absolute; width: 800px; height: 600px; transform: translate(-50%, -50%); top: 50%; left: 50%;""></div><button class=""jspsych-btn"" style=""position: absolute; top: 50%; left: 50%; transform: translate(-50%, -50%); margin-left: -250px; margin-top: -200px; width: 120px; height: 60px; font-size: 20px;""'>BLACK</button><button class=""jspsych-btn"" style=""position: absolute; top: 50%; left: 50%; transform: translate(-50%, -50%); margin-left: 250px; margin-top: -200px; width: 120px; height: 60px; font-size: 20px;""'>WHITE</button>","0","","","","","","","","","","","","","",""
"","","html-button-response","11","11292","0.0-5.0-1.2","","1303","","","[""<div id=\""mousetracking-container\"" style=\""border:2px solid transparent; border-color: #ccc; position: absolute; width: 800px; height: 600px; transform: translate(-50%, -50%); top: 50%; left: 50%;\""></div><img src='images/black/b2.png' style='position:absolute; top: 50%; left: 50%; transform: translate(-50%, -50%); margin-top: 200px; width: nullpx; height: nullpx'>""]","1","","","","","","","mouseTrackQuestion","[""BLACK"",""WHITE""]","[""black"",""white""]","[{""x"":622,""y"":551,""t"":705,""event"":""mousemove""},{""x"":626,""y"":544,""t"":711,""event"":""mousemove""},{""x"":633,""y"":529,""t"":726,""event"":""mousemove""},{""x"":642,""y"":512,""t"":743,""event"":""mousemove""},{""x"":652,""y"":492,""t"":759,""event"":""mousemove""},{""x"":677,""y"":450,""t"":776,""event"":""mousemove""},{""x"":696,""y"":423,""t"":793,""event"":""mousemove""},{""x"":724,""y"":382,""t"":809,""event"":""mousemove""},{""x"":738,""y"":362,""t"":826,""event"":""mousemove""},{""x"":754,""y"":338,""t"":843,""event"":""mousemove""},{""x"":775,""y"":308,""t"":859,""event"":""mousemove""},{""x"":787,""y"":289,""t"":876,""event"":""mousemove""},{""x"":798,""y"":274,""t"":893,""event"":""mousemove""},{""x"":812,""y"":251,""t"":909,""event"":""mousemove""},{""x"":820,""y"":239,""t"":926,""event"":""mousemove""},{""x"":827,""y"":229,""t"":943,""event"":""mousemove""},{""x"":829,""y"":226,""t"":960,""event"":""mousemove""},{""x"":832,""y"":224,""t"":976,""event"":""mousemove""},{""x"":833,""y"":222,""t"":993,""event"":""mousemove""},{""x"":836,""y"":218,""t"":1009,""event"":""mousemove""},{""x"":838,""y"":216,""t"":1026,""event"":""mousemove""},{""x"":841,""y"":214,""t"":1043,""event"":""mousemove""},{""x"":846,""y"":207,""t"":1059,""event"":""mousemove""},{""x"":850,""y"":202,""t"":1076,""event"":""mousemove""},{""x"":855,""y"":194,""t"":1093,""event"":""mousemove""},{""x"":860,""y"":188,""t"":1109,""event"":""mousemove""},{""x"":862,""y"":185,""t"":1126,""event"":""mousemove""},{""x"":863,""y"":184,""t"":1143,""event"":""mousemove""}]","{""#mousetracking-container"":{""x"":238,""y"":58,""width"":804,""height"":604,""top"":58,""right"":1042,""bottom"":662,""left"":238}}","false","false","true"
"","","html-button-response","12","12987","0.0-5.0-0.3","","1694","","","<div id=""mousetracking-container"" style=""border:2px solid transparent; border-color: #ccc; position: absolute; width: 800px; height: 600px; transform: translate(-50%, -50%); top: 50%; left: 50%;""></div><button class=""jspsych-btn"" style=""position: absolute; top: 50%; left: 50%; transform: translate(-50%, -50%); margin-left: -250px; margin-top: -200px; width: 120px; height: 60px; font-size: 20px;""'>BLACK</button><button class=""jspsych-btn"" style=""position: absolute; top: 50%; left: 50%; transform: translate(-50%, -50%); margin-left: 250px; margin-top: -200px; width: 120px; height: 60px; font-size: 20px;""'>WHITE</button>","0","","","","","","","","","","","","","",""
"","","html-button-response","13","14709","0.0-5.0-1.3","","1721","","","[""<div id=\""mousetracking-container\"" style=\""border:2px solid transparent; border-color: #ccc; position: absolute; width: 800px; height: 600px; transform: translate(-50%, -50%); top: 50%; left: 50%;\""></div><img src='images/white/w1.png' style='position:absolute; top: 50%; left: 50%; transform: translate(-50%, -50%); margin-top: 200px; width: nullpx; height: nullpx'>""]","0","","","","","","","mouseTrackQuestion","[""BLACK"",""WHITE""]","[""black"",""white""]","[{""x"":627,""y"":554,""t"":610,""event"":""mousemove""},{""x"":621,""y"":552,""t"":616,""event"":""mousemove""},{""x"":614,""y"":548,""t"":628,""event"":""mousemove""},{""x"":592,""y"":540,""t"":645,""event"":""mousemove""},{""x"":573,""y"":533,""t"":661,""event"":""mousemove""},{""x"":558,""y"":526,""t"":678,""event"":""mousemove""},{""x"":536,""y"":517,""t"":695,""event"":""mousemove""},{""x"":518,""y"":511,""t"":712,""event"":""mousemove""},{""x"":484,""y"":501,""t"":728,""event"":""mousemove""},{""x"":450,""y"":492,""t"":745,""event"":""mousemove""},{""x"":403,""y"":482,""t"":761,""event"":""mousemove""},{""x"":365,""y"":472,""t"":778,""event"":""mousemove""},{""x"":330,""y"":464,""t"":795,""event"":""mousemove""},{""x"":290,""y"":453,""t"":811,""event"":""mousemove""},{""x"":263,""y"":447,""t"":828,""event"":""mousemove""},{""x"":238,""y"":442,""t"":845,""event"":""mousemove""},{""x"":204,""y"":436,""t"":862,""event"":""mousemove""},{""x"":182,""y"":430,""t"":878,""event"":""mousemove""},{""x"":157,""y"":424,""t"":895,""event"":""mousemove""},{""x"":143,""y"":420,""t"":912,""event"":""mousemove""},{""x"":132,""y"":416,""t"":928,""event"":""mousemove""},{""x"":124,""y"":415,""t"":945,""event"":""mousemove""},{""x"":121,""y"":414,""t"":962,""event"":""mousemove""},{""x"":115,""y"":412,""t"":978,""event"":""mousemove""},{""x"":112,""y"":411,""t"":995,""event"":""mousemove""},{""x"":110,""y"":410,""t"":1011,""event"":""mousemove""},{""x"":107,""y"":408,""t"":1028,""event"":""mousemove""},{""x"":107,""y"":407,""t"":1053,""event"":""mousemove""},{""x"":108,""y"":407,""t"":1124,""event"":""mousemove""},{""x"":109,""y"":407,""t"":1194,""event"":""mousemove""},{""x"":110,""y"":407,""t"":1228,""event"":""mousemove""},{""x"":112,""y"":406,""t"":1245,""event"":""mousemove""},{""x"":116,""y"":402,""t"":1261,""event"":""mousemove""},{""x"":130,""y"":388,""t"":1278,""event"":""mousemove""},{""x"":146,""y"":371,""t"":1295,""event"":""mousemove""},{""x"":188,""y"":330,""t"":1311,""event"":""mousemove""},{""x"":219,""y"":300,""t"":1328,""event"":""mousemove""},{""x"":246,""y"":276,""t"":1345,""event"":""mousemove""},{""x"":276,""y"":248,""t"":1362,""event"":""mousemove""},{""x"":290,""y"":234,""t"":1378,""event"":""mousemove""},{""x"":313,""y"":214,""t"":1395,""event"":""mousemove""},{""x"":325,""y"":202,""t"":1412,""event"":""mousemove""},{""x"":338,""y"":191,""t"":1428,""event"":""mousemove""},{""x"":351,""y"":180,""t"":1445,""event"":""mousemove""},{""x"":360,""y"":172,""t"":1462,""event"":""mousemove""},{""x"":371,""y"":161,""t"":1478,""event"":""mousemove""},{""x"":377,""y"":155,""t"":1495,""event"":""mousemove""},{""x"":382,""y"":151,""t"":1511,""event"":""mousemove""},{""x"":389,""y"":144,""t"":1528,""event"":""mousemove""},{""x"":391,""y"":142,""t"":1545,""event"":""mousemove""},{""x"":394,""y"":141,""t"":1561,""event"":""mousemove""},{""x"":395,""y"":141,""t"":1581,""event"":""mousemove""},{""x"":396,""y"":141,""t"":1610,""event"":""mousemove""}]","{""#mousetracking-container"":{""x"":238,""y"":58,""width"":804,""height"":604,""top"":58,""right"":1042,""bottom"":662,""left"":238}}","false","false","true"
"","","html-button-response","14","16091","0.0-5.0-0.4","","1380","","","<div id=""mousetracking-container"" style=""border:2px solid transparent; border-color: #ccc; position: absolute; width: 800px; height: 600px; transform: translate(-50%, -50%); top: 50%; left: 50%;""></div><button class=""jspsych-btn"" style=""position: absolute; top: 50%; left: 50%; transform: translate(-50%, -50%); margin-left: -250px; margin-top: -200px; width: 120px; height: 60px; font-size: 20px;""'>BLACK</button><button class=""jspsych-btn"" style=""position: absolute; top: 50%; left: 50%; transform: translate(-50%, -50%); margin-left: 250px; margin-top: -200px; width: 120px; height: 60px; font-size: 20px;""'>WHITE</button>","0","","","","","","","","","","","","","",""
"","","html-button-response","15","17415","0.0-5.0-1.4","","1323","","","[""<div id=\""mousetracking-container\"" style=\""border:2px solid transparent; border-color: #ccc; position: absolute; width: 800px; height: 600px; transform: translate(-50%, -50%); top: 50%; left: 50%;\""></div><img src='images/white/w2.png' style='position:absolute; top: 50%; left: 50%; transform: translate(-50%, -50%); margin-top: 200px; width: nullpx; height: nullpx'>""]","1","","","","","","","mouseTrackQuestion","[""BLACK"",""WHITE""]","[""black"",""white""]","[{""x"":635,""y"":552,""t"":327,""event"":""mousemove""},{""x"":681,""y"":539,""t"":341,""event"":""mousemove""},{""x"":724,""y"":528,""t"":357,""event"":""mousemove""},{""x"":808,""y"":505,""t"":374,""event"":""mousemove""},{""x"":851,""y"":495,""t"":391,""event"":""mousemove""},{""x"":894,""y"":485,""t"":407,""event"":""mousemove""},{""x"":954,""y"":470,""t"":424,""event"":""mousemove""},{""x"":986,""y"":461,""t"":441,""event"":""mousemove""},{""x"":1030,""y"":446,""t"":457,""event"":""mousemove""},{""x"":1056,""y"":437,""t"":474,""event"":""mousemove""},{""x"":1090,""y"":426,""t"":491,""event"":""mousemove""},{""x"":1114,""y"":418,""t"":507,""event"":""mousemove""},{""x"":1120,""y"":416,""t"":524,""event"":""mousemove""},{""x"":1122,""y"":416,""t"":541,""event"":""mousemove""},{""x"":1124,""y"":415,""t"":557,""event"":""mousemove""},{""x"":1123,""y"":414,""t"":576,""event"":""mousemove""},{""x"":1117,""y"":407,""t"":836,""event"":""mousemove""},{""x"":1112,""y"":398,""t"":842,""event"":""mousemove""},{""x"":1097,""y"":376,""t"":857,""event"":""mousemove""},{""x"":1082,""y"":356,""t"":874,""event"":""mousemove""},{""x"":1061,""y"":330,""t"":891,""event"":""mousemove""},{""x"":1047,""y"":316,""t"":907,""event"":""mousemove""},{""x"":1034,""y"":302,""t"":924,""event"":""mousemove""},{""x"":1015,""y"":278,""t"":941,""event"":""mousemove""},{""x"":1002,""y"":264,""t"":958,""event"":""mousemove""},{""x"":985,""y"":249,""t"":974,""event"":""mousemove""},{""x"":977,""y"":241,""t"":991,""event"":""mousemove""},{""x"":967,""y"":232,""t"":1008,""event"":""mousemove""},{""x"":956,""y"":220,""t"":1024,""event"":""mousemove""},{""x"":948,""y"":212,""t"":1041,""event"":""mousemove""},{""x"":942,""y"":206,""t"":1057,""event"":""mousemove""},{""x"":933,""y"":196,""t"":1074,""event"":""mousemove""},{""x"":926,""y"":190,""t"":1091,""event"":""mousemove""},{""x"":916,""y"":182,""t"":1108,""event"":""mousemove""},{""x"":912,""y"":177,""t"":1124,""event"":""mousemove""},{""x"":907,""y"":173,""t"":1141,""event"":""mousemove""},{""x"":905,""y"":170,""t"":1158,""event"":""mousemove""},{""x"":903,""y"":168,""t"":1174,""event"":""mousemove""},{""x"":901,""y"":166,""t"":1191,""event"":""mousemove""},{""x"":899,""y"":164,""t"":1207,""event"":""mousemove""},{""x"":898,""y"":160,""t"":1224,""event"":""mousemove""},{""x"":897,""y"":160,""t"":1238,""event"":""mousemove""}]","{""#mousetracking-container"":{""x"":238,""y"":58,""width"":804,""height"":604,""top"":58,""right"":1042,""bottom"":662,""left"":238}}","false","false","true"
"","","html-button-response","16","19019","0.0-5.0-0.5","","1603","","","<div id=""mousetracking-container"" style=""border:2px solid transparent; border-color: #ccc; position: absolute; width: 800px; height: 600px; transform: translate(-50%, -50%); top: 50%; left: 50%;""></div><button class=""jspsych-btn"" style=""position: absolute; top: 50%; left: 50%; transform: translate(-50%, -50%); margin-left: -250px; margin-top: -200px; width: 120px; height: 60px; font-size: 20px;""'>BLACK</button><button class=""jspsych-btn"" style=""position: absolute; top: 50%; left: 50%; transform: translate(-50%, -50%); margin-left: 250px; margin-top: -200px; width: 120px; height: 60px; font-size: 20px;""'>WHITE</button>","0","","","","","","","","","","","","","",""
"","","html-button-response","17","21014","0.0-5.0-1.5","","1994","","","[""<div id=\""mousetracking-container\"" style=\""border:2px solid transparent; border-color: #ccc; position: absolute; width: 800px; height: 600px; transform: translate(-50%, -50%); top: 50%; left: 50%;\""></div><img src='images/white/w4.png' style='position:absolute; top: 50%; left: 50%; transform: translate(-50%, -50%); margin-top: 200px; width: nullpx; height: nullpx'>""]","1","","","","","","","mouseTrackQuestion","[""BLACK"",""WHITE""]","[""black"",""white""]","[{""x"":638,""y"":555,""t"":924,""event"":""mousemove""},{""x"":638,""y"":554,""t"":937,""event"":""mousemove""},{""x"":638,""y"":552,""t"":981,""event"":""mousemove""},{""x"":638,""y"":551,""t"":997,""event"":""mousemove""},{""x"":638,""y"":548,""t"":1014,""event"":""mousemove""},{""x"":638,""y"":546,""t"":1031,""event"":""mousemove""},{""x"":638,""y"":545,""t"":1047,""event"":""mousemove""},{""x"":638,""y"":543,""t"":1064,""event"":""mousemove""},{""x"":638,""y"":541,""t"":1114,""event"":""mousemove""},{""x"":638,""y"":540,""t"":1131,""event"":""mousemove""},{""x"":638,""y"":535,""t"":1147,""event"":""mousemove""},{""x"":638,""y"":527,""t"":1164,""event"":""mousemove""},{""x"":640,""y"":516,""t"":1181,""event"":""mousemove""},{""x"":641,""y"":496,""t"":1198,""event"":""mousemove""},{""x"":644,""y"":484,""t"":1214,""event"":""mousemove""},{""x"":650,""y"":459,""t"":1231,""event"":""mousemove""},{""x"":656,""y"":445,""t"":1248,""event"":""mousemove""},{""x"":665,""y"":423,""t"":1264,""event"":""mousemove""},{""x"":670,""y"":413,""t"":1281,""event"":""mousemove""},{""x"":678,""y"":401,""t"":1297,""event"":""mousemove""},{""x"":688,""y"":391,""t"":1314,""event"":""mousemove""},{""x"":696,""y"":386,""t"":1331,""event"":""mousemove""},{""x"":708,""y"":381,""t"":1348,""event"":""mousemove""},{""x"":720,""y"":379,""t"":1364,""event"":""mousemove""},{""x"":730,""y"":378,""t"":1381,""event"":""mousemove""},{""x"":744,""y"":378,""t"":1397,""event"":""mousemove""},{""x"":756,""y"":378,""t"":1414,""event"":""mousemove""},{""x"":769,""y"":376,""t"":1431,""event"":""mousemove""},{""x"":784,""y"":376,""t"":1447,""event"":""mousemove""},{""x"":794,""y"":375,""t"":1464,""event"":""mousemove""},{""x"":806,""y"":373,""t"":1481,""event"":""mousemove""},{""x"":814,""y"":370,""t"":1498,""event"":""mousemove""},{""x"":830,""y"":361,""t"":1514,""event"":""mousemove""},{""x"":840,""y"":353,""t"":1531,""event"":""mousemove""},{""x"":852,""y"":341,""t"":1548,""event"":""mousemove""},{""x"":866,""y"":326,""t"":1564,""event"":""mousemove""},{""x"":876,""y"":312,""t"":1581,""event"":""mousemove""},{""x"":891,""y"":288,""t"":1598,""event"":""mousemove""},{""x"":897,""y"":272,""t"":1614,""event"":""mousemove""},{""x"":901,""y"":261,""t"":1631,""event"":""mousemove""},{""x"":903,""y"":248,""t"":1647,""event"":""mousemove""},{""x"":903,""y"":242,""t"":1664,""event"":""mousemove""},{""x"":898,""y"":231,""t"":1681,""event"":""mousemove""},{""x"":894,""y"":224,""t"":1698,""event"":""mousemove""},{""x"":888,""y"":215,""t"":1714,""event"":""mousemove""},{""x"":880,""y"":204,""t"":1731,""event"":""mousemove""},{""x"":876,""y"":198,""t"":1748,""event"":""mousemove""},{""x"":870,""y"":188,""t"":1765,""event"":""mousemove""},{""x"":868,""y"":184,""t"":1781,""event"":""mousemove""},{""x"":864,""y"":178,""t"":1798,""event"":""mousemove""},{""x"":860,""y"":170,""t"":1814,""event"":""mousemove""},{""x"":858,""y"":168,""t"":1831,""event"":""mousemove""},{""x"":854,""y"":165,""t"":1847,""event"":""mousemove""},{""x"":853,""y"":163,""t"":1864,""event"":""mousemove""},{""x"":852,""y"":161,""t"":1881,""event"":""mousemove""},{""x"":852,""y"":160,""t"":1897,""event"":""mousemove""}]","{""#mousetracking-container"":{""x"":238,""y"":58,""width"":804,""height"":604,""top"":58,""right"":1042,""bottom"":662,""left"":238}}","false","false","true"
"","","html-button-response","18","22841","0.0-5.0-0.6","","1826","","","<div id=""mousetracking-container"" style=""border:2px solid transparent; border-color: #ccc; position: absolute; width: 800px; height: 600px; transform: translate(-50%, -50%); top: 50%; left: 50%;""></div><button class=""jspsych-btn"" style=""position: absolute; top: 50%; left: 50%; transform: translate(-50%, -50%); margin-left: -250px; margin-top: -200px; width: 120px; height: 60px; font-size: 20px;""'>BLACK</button><button class=""jspsych-btn"" style=""position: absolute; top: 50%; left: 50%; transform: translate(-50%, -50%); margin-left: 250px; margin-top: -200px; width: 120px; height: 60px; font-size: 20px;""'>WHITE</button>","0","","","","","","","","","","","","","",""
"","","html-button-response","19","24233","0.0-5.0-1.6","","1392","","","[""<div id=\""mousetracking-container\"" style=\""border:2px solid transparent; border-color: #ccc; position: absolute; width: 800px; height: 600px; transform: translate(-50%, -50%); top: 50%; left: 50%;\""></div><img src='images/white/w5.png' style='position:absolute; top: 50%; left: 50%; transform: translate(-50%, -50%); margin-top: 200px; width: nullpx; height: nullpx'>""]","1","","","","","","","mouseTrackQuestion","[""BLACK"",""WHITE""]","[""black"",""white""]","[{""x"":636,""y"":553,""t"":337,""event"":""mousemove""},{""x"":633,""y"":541,""t"":343,""event"":""mousemove""},{""x"":627,""y"":506,""t"":359,""event"":""mousemove""},{""x"":621,""y"":460,""t"":376,""event"":""mousemove""},{""x"":616,""y"":392,""t"":392,""event"":""mousemove""},{""x"":611,""y"":346,""t"":409,""event"":""mousemove""},{""x"":606,""y"":300,""t"":426,""event"":""mousemove""},{""x"":599,""y"":221,""t"":443,""event"":""mousemove""},{""x"":596,""y"":170,""t"":459,""event"":""mousemove""},{""x"":595,""y"":131,""t"":477,""event"":""mousemove""},{""x"":595,""y"":103,""t"":493,""event"":""mousemove""},{""x"":596,""y"":72,""t"":509,""event"":""mousemove""},{""x"":602,""y"":27,""t"":526,""event"":""mousemove""},{""x"":604,""y"":14,""t"":543,""event"":""mousemove""},{""x"":830,""y"":7,""t"":988,""event"":""mousemove""},{""x"":841,""y"":12,""t"":995,""event"":""mousemove""},{""x"":860,""y"":22,""t"":1009,""event"":""mousemove""},{""x"":874,""y"":34,""t"":1026,""event"":""mousemove""},{""x"":883,""y"":46,""t"":1043,""event"":""mousemove""},{""x"":894,""y"":66,""t"":1059,""event"":""mousemove""},{""x"":900,""y"":81,""t"":1076,""event"":""mousemove""},{""x"":908,""y"":100,""t"":1093,""event"":""mousemove""},{""x"":910,""y"":113,""t"":1110,""event"":""mousemove""},{""x"":912,""y"":123,""t"":1126,""event"":""mousemove""},{""x"":913,""y"":137,""t"":1143,""event"":""mousemove""},{""x"":914,""y"":144,""t"":1160,""event"":""mousemove""},{""x"":916,""y"":151,""t"":1176,""event"":""mousemove""},{""x"":916,""y"":154,""t"":1194,""event"":""mousemove""},{""x"":916,""y"":158,""t"":1210,""event"":""mousemove""},{""x"":917,""y"":162,""t"":1227,""event"":""mousemove""},{""x"":917,""y"":165,""t"":1244,""event"":""mousemove""},{""x"":917,""y"":166,""t"":1259,""event"":""mousemove""},{""x"":917,""y"":168,""t"":1276,""event"":""mousemove""},{""x"":917,""y"":168,""t"":1343,""event"":""mousemove""},{""x"":917,""y"":168,""t"":1360,""event"":""mousemove""}]","{""#mousetracking-container"":{""x"":238,""y"":58,""width"":804,""height"":604,""top"":58,""right"":1042,""bottom"":662,""left"":238}}","false","false","true"
"","","html-button-response","20","25777","0.0-5.0-0.7","","1542","","","<div id=""mousetracking-container"" style=""border:2px solid transparent; border-color: #ccc; position: absolute; width: 800px; height: 600px; transform: translate(-50%, -50%); top: 50%; left: 50%;""></div><button class=""jspsych-btn"" style=""position: absolute; top: 50%; left: 50%; transform: translate(-50%, -50%); margin-left: -250px; margin-top: -200px; width: 120px; height: 60px; font-size: 20px;""'>BLACK</button><button class=""jspsych-btn"" style=""position: absolute; top: 50%; left: 50%; transform: translate(-50%, -50%); margin-left: 250px; margin-top: -200px; width: 120px; height: 60px; font-size: 20px;""'>WHITE</button>","0","","","","","","","","","","","","","",""
"","","html-button-response","21","27510","0.0-5.0-1.7","","1732","","","[""<div id=\""mousetracking-container\"" style=\""border:2px solid transparent; border-color: #ccc; position: absolute; width: 800px; height: 600px; transform: translate(-50%, -50%); top: 50%; left: 50%;\""></div><img src='images/white/w3.png' style='position:absolute; top: 50%; left: 50%; transform: translate(-50%, -50%); margin-top: 200px; width: nullpx; height: nullpx'>""]","1","","","","","","","mouseTrackQuestion","[""BLACK"",""WHITE""]","[""black"",""white""]","[{""x"":642,""y"":558,""t"":286,""event"":""mousemove""},{""x"":641,""y"":570,""t"":292,""event"":""mousemove""},{""x"":638,""y"":596,""t"":307,""event"":""mousemove""},{""x"":633,""y"":624,""t"":324,""event"":""mousemove""},{""x"":630,""y"":650,""t"":340,""event"":""mousemove""},{""x"":628,""y"":684,""t"":357,""event"":""mousemove""},{""x"":628,""y"":702,""t"":374,""event"":""mousemove""},{""x"":629,""y"":719,""t"":390,""event"":""mousemove""},{""x"":630,""y"":719,""t"":407,""event"":""mousemove""},{""x"":631,""y"":719,""t"":424,""event"":""mousemove""},{""x"":638,""y"":714,""t"":781,""event"":""mousemove""},{""x"":646,""y"":707,""t"":791,""event"":""mousemove""},{""x"":680,""y"":675,""t"":807,""event"":""mousemove""},{""x"":718,""y"":640,""t"":824,""event"":""mousemove""},{""x"":745,""y"":612,""t"":840,""event"":""mousemove""},{""x"":782,""y"":568,""t"":857,""event"":""mousemove""},{""x"":804,""y"":538,""t"":874,""event"":""mousemove""},{""x"":828,""y"":500,""t"":890,""event"":""mousemove""},{""x"":855,""y"":443,""t"":907,""event"":""mousemove""},{""x"":865,""y"":412,""t"":924,""event"":""mousemove""},{""x"":875,""y"":360,""t"":940,""event"":""mousemove""},{""x"":878,""y"":334,""t"":957,""event"":""mousemove""},{""x"":883,""y"":297,""t"":974,""event"":""mousemove""},{""x"":886,""y"":277,""t"":991,""event"":""mousemove""},{""x"":887,""y"":262,""t"":1007,""event"":""mousemove""},{""x"":889,""y"":245,""t"":1024,""event"":""mousemove""},{""x"":889,""y"":236,""t"":1041,""event"":""mousemove""},{""x"":889,""y"":228,""t"":1057,""event"":""mousemove""},{""x"":890,""y"":220,""t"":1074,""event"":""mousemove""},{""x"":890,""y"":214,""t"":1092,""event"":""mousemove""},{""x"":891,""y"":208,""t"":1107,""event"":""mousemove""},{""x"":891,""y"":206,""t"":1124,""event"":""mousemove""},{""x"":890,""y"":202,""t"":1140,""event"":""mousemove""},{""x"":890,""y"":200,""t"":1157,""event"":""mousemove""},{""x"":890,""y"":196,""t"":1174,""event"":""mousemove""},{""x"":890,""y"":195,""t"":1190,""event"":""mousemove""},{""x"":890,""y"":194,""t"":1207,""event"":""mousemove""},{""x"":889,""y"":194,""t"":1224,""event"":""mousemove""},{""x"":889,""y"":193,""t"":1241,""event"":""mousemove""},{""x"":889,""y"":192,""t"":1257,""event"":""mousemove""},{""x"":888,""y"":190,""t"":1614,""event"":""mousemove""},{""x"":887,""y"":189,""t"":1624,""event"":""mousemove""},{""x"":886,""y"":187,""t"":1641,""event"":""mousemove""}]","{""#mousetracking-container"":{""x"":238,""y"":58,""width"":804,""height"":604,""top"":58,""right"":1042,""bottom"":662,""left"":238}}","false","false","true"
"","","html-button-response","22","29358","0.0-5.0-0.8","","1847","","","<div id=""mousetracking-container"" style=""border:2px solid transparent; border-color: #ccc; position: absolute; width: 800px; height: 600px; transform: translate(-50%, -50%); top: 50%; left: 50%;""></div><button class=""jspsych-btn"" style=""position: absolute; top: 50%; left: 50%; transform: translate(-50%, -50%); margin-left: -250px; margin-top: -200px; width: 120px; height: 60px; font-size: 20px;""'>BLACK</button><button class=""jspsych-btn"" style=""position: absolute; top: 50%; left: 50%; transform: translate(-50%, -50%); margin-left: 250px; margin-top: -200px; width: 120px; height: 60px; font-size: 20px;""'>WHITE</button>","0","","","","","","","","","","","","","",""
"","","html-button-response","23","31149","0.0-5.0-1.8","","1788","","","[""<div id=\""mousetracking-container\"" style=\""border:2px solid transparent; border-color: #ccc; position: absolute; width: 800px; height: 600px; transform: translate(-50%, -50%); top: 50%; left: 50%;\""></div><img src='images/black/b4.png' style='position:absolute; top: 50%; left: 50%; transform: translate(-50%, -50%); margin-top: 200px; width: nullpx; height: nullpx'>""]","1","","","","","","","mouseTrackQuestion","[""BLACK"",""WHITE""]","[""black"",""white""]","[{""x"":630,""y"":560,""t"":437,""event"":""mousemove""},{""x"":626,""y"":555,""t"":443,""event"":""mousemove""},{""x"":619,""y"":546,""t"":460,""event"":""mousemove""},{""x"":614,""y"":540,""t"":476,""event"":""mousemove""},{""x"":604,""y"":524,""t"":493,""event"":""mousemove""},{""x"":598,""y"":511,""t"":510,""event"":""mousemove""},{""x"":590,""y"":488,""t"":526,""event"":""mousemove""},{""x"":584,""y"":471,""t"":543,""event"":""mousemove""},{""x"":576,""y"":450,""t"":559,""event"":""mousemove""},{""x"":562,""y"":414,""t"":576,""event"":""mousemove""},{""x"":552,""y"":389,""t"":593,""event"":""mousemove""},{""x"":541,""y"":358,""t"":610,""event"":""mousemove""},{""x"":537,""y"":342,""t"":626,""event"":""mousemove""},{""x"":536,""y"":332,""t"":643,""event"":""mousemove""},{""x"":534,""y"":324,""t"":660,""event"":""mousemove""},{""x"":534,""y"":322,""t"":676,""event"":""mousemove""},{""x"":534,""y"":320,""t"":693,""event"":""mousemove""},{""x"":535,""y"":320,""t"":889,""event"":""mousemove""},{""x"":536,""y"":320,""t"":894,""event"":""mousemove""},{""x"":540,""y"":320,""t"":910,""event"":""mousemove""},{""x"":548,""y"":320,""t"":927,""event"":""mousemove""},{""x"":574,""y"":318,""t"":943,""event"":""mousemove""},{""x"":601,""y"":314,""t"":960,""event"":""mousemove""},{""x"":638,""y"":312,""t"":976,""event"":""mousemove""},{""x"":698,""y"":309,""t"":993,""event"":""mousemove""},{""x"":729,""y"":308,""t"":1010,""event"":""mousemove""},{""x"":768,""y"":304,""t"":1026,""event"":""mousemove""},{""x"":783,""y"":302,""t"":1043,""event"":""mousemove""},{""x"":794,""y"":298,""t"":1060,""event"":""mousemove""},{""x"":802,""y"":294,""t"":1077,""event"":""mousemove""},{""x"":806,""y"":292,""t"":1093,""event"":""mousemove""},{""x"":808,""y"":290,""t"":1110,""event"":""mousemove""},{""x"":810,""y"":282,""t"":1544,""event"":""mousemove""},{""x"":818,""y"":259,""t"":1560,""event"":""mousemove""},{""x"":830,""y"":236,""t"":1577,""event"":""mousemove""},{""x"":847,""y"":206,""t"":1593,""event"":""mousemove""},{""x"":856,""y"":192,""t"":1610,""event"":""mousemove""},{""x"":867,""y"":177,""t"":1628,""event"":""mousemove""},{""x"":871,""y"":171,""t"":1643,""event"":""mousemove""},{""x"":874,""y"":168,""t"":1660,""event"":""mousemove""},{""x"":875,""y"":165,""t"":1676,""event"":""mousemove""}]","{""#mousetracking-container"":{""x"":238,""y"":58,""width"":804,""height"":604,""top"":58,""right"":1042,""bottom"":662,""left"":238}}","false","false","true"
"","","html-button-response","24","32738","0.0-5.0-0.9","","1588","","","<div id=""mousetracking-container"" style=""border:2px solid transparent; border-color: #ccc; position: absolute; width: 800px; height: 600px; transform: translate(-50%, -50%); top: 50%; left: 50%;""></div><button class=""jspsych-btn"" style=""position: absolute; top: 50%; left: 50%; transform: translate(-50%, -50%); margin-left: -250px; margin-top: -200px; width: 120px; height: 60px; font-size: 20px;""'>BLACK</button><button class=""jspsych-btn"" style=""position: absolute; top: 50%; left: 50%; transform: translate(-50%, -50%); margin-left: 250px; margin-top: -200px; width: 120px; height: 60px; font-size: 20px;""'>WHITE</button>","0","","","","","","","","","","","","","",""
"","","html-button-response","25","36364","0.0-5.0-1.9","","3624","","","[""<div id=\""mousetracking-container\"" style=\""border:2px solid transparent; border-color: #ccc; position: absolute; width: 800px; height: 600px; transform: translate(-50%, -50%); top: 50%; left: 50%;\""></div><img src='images/black/b5.png' style='position:absolute; top: 50%; left: 50%; transform: translate(-50%, -50%); margin-top: 200px; width: nullpx; height: nullpx'>""]","0","","","","","","","mouseTrackQuestion","[""BLACK"",""WHITE""]","[""black"",""white""]","[{""x"":644,""y"":547,""t"":603,""event"":""mousemove""},{""x"":646,""y"":544,""t"":615,""event"":""mousemove""},{""x"":654,""y"":531,""t"":632,""event"":""mousemove""},{""x"":661,""y"":522,""t"":649,""event"":""mousemove""},{""x"":674,""y"":507,""t"":665,""event"":""mousemove""},{""x"":683,""y"":498,""t"":682,""event"":""mousemove""},{""x"":693,""y"":488,""t"":699,""event"":""mousemove""},{""x"":709,""y"":472,""t"":715,""event"":""mousemove""},{""x"":723,""y"":459,""t"":732,""event"":""mousemove""},{""x"":745,""y"":440,""t"":748,""event"":""mousemove""},{""x"":758,""y"":427,""t"":765,""event"":""mousemove""},{""x"":776,""y"":412,""t"":782,""event"":""mousemove""},{""x"":787,""y"":402,""t"":799,""event"":""mousemove""},{""x"":792,""y"":396,""t"":815,""event"":""mousemove""},{""x"":795,""y"":392,""t"":832,""event"":""mousemove""},{""x"":796,""y"":392,""t"":849,""event"":""mousemove""},{""x"":791,""y"":392,""t"":1319,""event"":""mousemove""},{""x"":771,""y"":391,""t"":1332,""event"":""mousemove""},{""x"":747,""y"":388,""t"":1349,""event"":""mousemove""},{""x"":718,""y"":384,""t"":1365,""event"":""mousemove""},{""x"":666,""y"":378,""t"":1382,""event"":""mousemove""},{""x"":618,""y"":375,""t"":1399,""event"":""mousemove""},{""x"":552,""y"":375,""t"":1415,""event"":""mousemove""},{""x"":523,""y"":376,""t"":1432,""event"":""mousemove""},{""x"":504,""y"":378,""t"":1449,""event"":""mousemove""},{""x"":489,""y"":378,""t"":1466,""event"":""mousemove""},{""x"":484,""y"":378,""t"":1482,""event"":""mousemove""},{""x"":482,""y"":378,""t"":1499,""event"":""mousemove""},{""x"":483,""y"":378,""t"":1804,""event"":""mousemove""},{""x"":484,""y"":378,""t"":1916,""event"":""mousemove""},{""x"":485,""y"":378,""t"":2020,""event"":""mousemove""},{""x"":486,""y"":378,""t"":2215,""event"":""mousemove""},{""x"":487,""y"":378,""t"":2388,""event"":""mousemove""},{""x"":488,""y"":378,""t"":2436,""event"":""mousemove""},{""x"":489,""y"":376,""t"":2482,""event"":""mousemove""},{""x"":494,""y"":370,""t"":2499,""event"":""mousemove""},{""x"":502,""y"":356,""t"":2516,""event"":""mousemove""},{""x"":514,""y"":338,""t"":2532,""event"":""mousemove""},{""x"":541,""y"":290,""t"":2549,""event"":""mousemove""},{""x"":557,""y"":264,""t"":2566,""event"":""mousemove""},{""x"":586,""y"":216,""t"":2583,""event"":""mousemove""},{""x"":598,""y"":198,""t"":2599,""event"":""mousemove""},{""x"":605,""y"":189,""t"":2616,""event"":""mousemove""},{""x"":610,""y"":181,""t"":2633,""event"":""mousemove""},{""x"":611,""y"":180,""t"":2649,""event"":""mousemove""},{""x"":612,""y"":180,""t"":2666,""event"":""mousemove""},{""x"":612,""y"":179,""t"":2736,""event"":""mousemove""},{""x"":606,""y"":179,""t"":3305,""event"":""mousemove""},{""x"":596,""y"":178,""t"":3316,""event"":""mousemove""},{""x"":562,""y"":176,""t"":3332,""event"":""mousemove""},{""x"":537,""y"":174,""t"":3349,""event"":""mousemove""},{""x"":516,""y"":172,""t"":3366,""event"":""mousemove""},{""x"":486,""y"":171,""t"":3383,""event"":""mousemove""},{""x"":472,""y"":170,""t"":3399,""event"":""mousemove""},{""x"":458,""y"":168,""t"":3416,""event"":""mousemove""},{""x"":451,""y"":165,""t"":3432,""event"":""mousemove""},{""x"":446,""y"":164,""t"":3449,""event"":""mousemove""},{""x"":442,""y"":163,""t"":3466,""event"":""mousemove""},{""x"":441,""y"":163,""t"":3482,""event"":""mousemove""},{""x"":440,""y"":163,""t"":3499,""event"":""mousemove""},{""x"":439,""y"":164,""t"":3516,""event"":""mousemove""}]","{""#mousetracking-container"":{""x"":238,""y"":58,""width"":804,""height"":604,""top"":58,""right"":1042,""bottom"":662,""left"":238}}","false","true","true"
"","","html-button-response","26","37215","0.0-5.0-3.9-0.9","","850","","","Please make your decision more quickly.","0","","","","","","","","","","","","","",""
"","","html-button-response","27","37853","0.0-6.0","","636","","","You've finished the last task. Click the button to end the study.","0","","","","","","","","","","","","","",""
