"success","timeout","failed_images","failed_audio","failed_video","trial_type","trial_index","time_elapsed","internal_node_id","rt","response","question_order","view_history","trait","stimulus","slider_start"
"true","false","[]","[]","[]","preload","0","1540","0.0-0.0","","","","","","",""
"","","","","","survey-text","1","6923","0.0-1.0","5352","{""Q0"":""5909955b9e26f200016e1247""}","","","","",""
"","","","","","survey-multi-choice","2","10269","0.0-2.0","3330","{""Eng"":""Yes""}","[0]","","","",""
"","","","","","instructions","3","21620","0.0-3.0","11341","","","[{""page_index"":0,""viewing_time"":7782},{""page_index"":1,""viewing_time"":3558}]","","",""
"","","","","","instructions","4","23477","0.0-4.0","1853","","","[{""page_index"":0,""viewing_time"":1853}]","","",""
"","","","","","instructions","5","30803","0.0-5.0","7324","","","[{""page_index"":0,""viewing_time"":1397},{""page_index"":1,""viewing_time"":3879},{""page_index"":2,""viewing_time"":2048}]","","",""
"","","","","","survey-text","6","45903","0.0-6.0","15054","{""Q0"":""frivolous""}","","","Serious","",""
"","","","","","html-slider-response","7","51454","0.0-7.0","5535","7","","","Serious","<div style=""width:500px;""> <p>How strongly do you feel that <strong>frivolous</strong> is a good fit for the opposite side of the <strong>Serious</strong> scale?</p></div>","4"
"","","","","","survey-text","8","70072","0.0-8.0","18608","{""Q0"":""progressive""}","","","Traditional","",""
"","","","","","html-slider-response","9","76543","0.0-9.0","6461","6","","","Traditional","<div style=""width:500px;""> <p>How strongly do you feel that <strong>progressive</strong> is a good fit for the opposite side of the <strong>Traditional</strong> scale?</p></div>","4"
"","","","","","survey-text","10","115408","0.0-10.0","38843","{""Q0"":""accepting""}","","","Critical","",""
"","","","","","html-slider-response","11","121631","0.0-11.0","6211","5","","","Critical","<div style=""width:500px;""> <p>How strongly do you feel that <strong>accepting</strong> is a good fit for the opposite side of the <strong>Critical</strong> scale?</p></div>","4"
"","","","","","survey-text","12","184564","0.0-12.0","62910","{""Q0"":""obstructive""}","","","Helpful","",""
"","","","","","html-slider-response","13","188762","0.0-13.0","4187","5","","","Helpful","<div style=""width:500px;""> <p>How strongly do you feel that <strong>obstructive</strong> is a good fit for the opposite side of the <strong>Helpful</strong> scale?</p></div>","4"
"","","","","","survey-text","14","211577","0.0-14.0","22793","{""Q0"":""dullard""}","","","Clever","",""
"","","","","","html-slider-response","15","216363","0.0-15.0","4779","7","","","Clever","<div style=""width:500px;""> <p>How strongly do you feel that <strong>dullard</strong> is a good fit for the opposite side of the <strong>Clever</strong> scale?</p></div>","4"
"","","","","","survey-text","16","225354","0.0-16.0","8969","{""Q0"":""passive""}","","","Aggressive","",""
"","","","","","html-slider-response","17","229115","0.0-17.0","3755","7","","","Aggressive","<div style=""width:500px;""> <p>How strongly do you feel that <strong>passive</strong> is a good fit for the opposite side of the <strong>Aggressive</strong> scale?</p></div>","4"
"","","","","","survey-text","18","263145","0.0-18.0","34012","{""Q0"":""loner""}","","","Sociable","",""
"","","","","","html-slider-response","19","267626","0.0-19.0","4474","7","","","Sociable","<div style=""width:500px;""> <p>How strongly do you feel that <strong>loner</strong> is a good fit for the opposite side of the <strong>Sociable</strong> scale?</p></div>","4"
"","","","","","survey-text","20","368274","0.0-20.0","100629","{""Q0"":""timid""}","","","Confident","",""
"","","","","","html-slider-response","21","371736","0.0-21.0","3442","5","","","Confident","<div style=""width:500px;""> <p>How strongly do you feel that <strong>timid</strong> is a good fit for the opposite side of the <strong>Confident</strong> scale?</p></div>","4"
"","","","","","survey-text","22","448207","0.0-22.0","76450","{""Q0"":""aquiescent""}","","","Bossy","",""
"","","","","","html-slider-response","23","452673","0.0-23.0","4453","6","","","Bossy","<div style=""width:500px;""> <p>How strongly do you feel that <strong>aquiescent</strong> is a good fit for the opposite side of the <strong>Bossy</strong> scale?</p></div>","4"
"","","","","","survey-text","24","468531","0.0-24.0","15839","{""Q0"":""irresponsible""}","","","Responsible","",""
"","","","","","html-slider-response","25","471450","0.0-25.0","2909","7","","","Responsible","<div style=""width:500px;""> <p>How strongly do you feel that <strong>irresponsible</strong> is a good fit for the opposite side of the <strong>Responsible</strong> scale?</p></div>","4"
"","","","","","survey-text","26","481942","0.0-26.0","10472","{""Q0"":""pessimistic""}","","","Optimistic","",""
"","","","","","html-slider-response","27","485962","0.0-27.0","4014","7","","","Optimistic","<div style=""width:500px;""> <p>How strongly do you feel that <strong>pessimistic</strong> is a good fit for the opposite side of the <strong>Optimistic</strong> scale?</p></div>","4"
"","","","","","survey-text","28","492203","0.0-28.0","6228","{""Q0"":""kind""}","","","Cruel","",""
"","","","","","html-slider-response","29","495834","0.0-29.0","3619","7","","","Cruel","<div style=""width:500px;""> <p>How strongly do you feel that <strong>kind</strong> is a good fit for the opposite side of the <strong>Cruel</strong> scale?</p></div>","4"
"","","","","","survey-text","30","534629","0.0-30.0","38780","{""Q0"":""unimaginative""}","","","Curious","",""
"","","","","","html-slider-response","31","538890","0.0-31.0","4250","4","","","Curious","<div style=""width:500px;""> <p>How strongly do you feel that <strong>unimaginative</strong> is a good fit for the opposite side of the <strong>Curious</strong> scale?</p></div>","4"
"","","","","","survey-text","32","546772","0.0-32.0","7865","{""Q0"":""morose""}","","","Enthusiastic","",""
"","","","","","html-slider-response","33","551467","0.0-33.0","4684","6","","","Enthusiastic","<div style=""width:500px;""> <p>How strongly do you feel that <strong>morose</strong> is a good fit for the opposite side of the <strong>Enthusiastic</strong> scale?</p></div>","4"
"","","","","","survey-text","34","576901","0.0-34.0","25419","{""Q0"":""repulsive""}","","","Charismatic","",""
"","","","","","html-slider-response","35","579548","0.0-35.0","2635","5","","","Charismatic","<div style=""width:500px;""> <p>How strongly do you feel that <strong>repulsive</strong> is a good fit for the opposite side of the <strong>Charismatic</strong> scale?</p></div>","4"
"","","","","","survey-text","36","587501","0.0-36.0","7938","{""Q0"":""cheerful""}","","","Grumpy","",""
"","","","","","html-slider-response","37","590404","0.0-37.0","2892","7","","","Grumpy","<div style=""width:500px;""> <p>How strongly do you feel that <strong>cheerful</strong> is a good fit for the opposite side of the <strong>Grumpy</strong> scale?</p></div>","4"
"","","","","","survey-text","38","597386","0.0-38.0","6963","{""Q0"":""careless""}","","","Careful","",""
"","","","","","html-slider-response","39","600548","0.0-39.0","3155","7","","","Careful","<div style=""width:500px;""> <p>How strongly do you feel that <strong>careless</strong> is a good fit for the opposite side of the <strong>Careful</strong> scale?</p></div>","4"
"","","","","","survey-text","40","622799","0.0-40.0","22235","{""Q0"":""immoral""}","","","Ethical","",""
"","","","","","html-slider-response","41","625293","0.0-41.0","2482","6","","","Ethical","<div style=""width:500px;""> <p>How strongly do you feel that <strong>immoral</strong> is a good fit for the opposite side of the <strong>Ethical</strong> scale?</p></div>","4"
"","","","","","survey-text","42","696716","0.0-42.0","71398","{""Q0"":""condident""}","","","Jealous","",""
"","","","","","html-slider-response","43","705432","0.0-43.0","8705","4","","","Jealous","<div style=""width:500px;""> <p>How strongly do you feel that <strong>condident</strong> is a good fit for the opposite side of the <strong>Jealous</strong> scale?</p></div>","4"
"","","","","","survey-text","44","714118","0.0-44.0","8662","{""Q0"":""normal""}","","","Weird","",""
"","","","","","html-slider-response","45","716137","0.0-45.0","2011","6","","","Weird","<div style=""width:500px;""> <p>How strongly do you feel that <strong>normal</strong> is a good fit for the opposite side of the <strong>Weird</strong> scale?</p></div>","4"
"","","","","","survey-text","46","735672","0.0-46.0","19524","{""Q0"":""hardhearted""}","","","Empathetic","",""
"","","","","","html-slider-response","47","740303","0.0-47.0","4621","6","","","Empathetic","<div style=""width:500px;""> <p>How strongly do you feel that <strong>hardhearted</strong> is a good fit for the opposite side of the <strong>Empathetic</strong> scale?</p></div>","4"
"","","","","","survey-text","48","767857","0.0-48.0","27533","{""Q0"":""cold""}","","","Affectionate","",""
"","","","","","html-slider-response","49","772256","0.0-49.0","4393","5","","","Affectionate","<div style=""width:500px;""> <p>How strongly do you feel that <strong>cold</strong> is a good fit for the opposite side of the <strong>Affectionate</strong> scale?</p></div>","4"
"","","","","","survey-text","50","780987","0.0-50.0","8716","{""Q0"":""arrogant""}","","","Humble","",""
"","","","","","html-slider-response","51","784387","0.0-51.0","3387","7","","","Humble","<div style=""width:500px;""> <p>How strongly do you feel that <strong>arrogant</strong> is a good fit for the opposite side of the <strong>Humble</strong> scale?</p></div>","4"
"","","","","","survey-text","52","796164","0.0-52.0","11764","{""Q0"":""inflexible""}","","","Flexible","",""
"","","","","","html-slider-response","53","798275","0.0-53.0","2099","7","","","Flexible","<div style=""width:500px;""> <p>How strongly do you feel that <strong>inflexible</strong> is a good fit for the opposite side of the <strong>Flexible</strong> scale?</p></div>","4"
"","","","","","survey-text","54","811891","0.0-54.0","13597","{""Q0"":""stupid""}","","","Wise","",""
"","","","","","html-slider-response","55","814308","0.0-55.0","2412","6","","","Wise","<div style=""width:500px;""> <p>How strongly do you feel that <strong>stupid</strong> is a good fit for the opposite side of the <strong>Wise</strong> scale?</p></div>","4"
"","","","","","survey-text","56","825608","0.0-56.0","11280","{""Q0"":""observant""}","","","Unobservant","",""
"","","","","","html-slider-response","57","828142","0.0-57.0","2528","7","","","Unobservant","<div style=""width:500px;""> <p>How strongly do you feel that <strong>observant</strong> is a good fit for the opposite side of the <strong>Unobservant</strong> scale?</p></div>","4"
"","","","","","survey-text","58","888361","0.0-58.0","60203","{""Q0"":""sedate""}","","","Disorderly","",""
"","","","","","html-slider-response","59","890974","0.0-59.0","2595","6","","","Disorderly","<div style=""width:500px;""> <p>How strongly do you feel that <strong>sedate</strong> is a good fit for the opposite side of the <strong>Disorderly</strong> scale?</p></div>","4"
"","","","","","survey-text","60","907090","0.0-60.0","16112","{""Q0"":""accepting""}","","","Skeptical","",""
"","","","","","html-slider-response","61","909793","0.0-61.0","2693","5","","","Skeptical","<div style=""width:500px;""> <p>How strongly do you feel that <strong>accepting</strong> is a good fit for the opposite side of the <strong>Skeptical</strong> scale?</p></div>","4"
"","","","","","survey-text","62","917385","0.0-62.0","7572","{""Q0"":""typical""}","","","Atypical","",""
"","","","","","html-slider-response","63","919641","0.0-63.0","2250","7","","","Atypical","<div style=""width:500px;""> <p>How strongly do you feel that <strong>typical</strong> is a good fit for the opposite side of the <strong>Atypical</strong> scale?</p></div>","4"
"","","","","","survey-text","64","926939","0.0-64.0","7282","{""Q0"":""immature""}","","","Mature","",""
"","","","","","html-slider-response","65","929425","0.0-65.0","2477","7","","","Mature","<div style=""width:500px;""> <p>How strongly do you feel that <strong>immature</strong> is a good fit for the opposite side of the <strong>Mature</strong> scale?</p></div>","4"
"","","","","","survey-text","66","998340","0.0-66.0","68879","{""Q0"":""accepting""}","","","Ambitious","",""
"","","","","","html-slider-response","67","1002353","0.0-67.0","4003","2","","","Ambitious","<div style=""width:500px;""> <p>How strongly do you feel that <strong>accepting</strong> is a good fit for the opposite side of the <strong>Ambitious</strong> scale?</p></div>","4"
"","","","","","survey-text","68","1019435","0.0-68.0","17062","{""Q0"":""knowing""}","","","Ignorant","",""
"","","","","","html-slider-response","69","1021553","0.0-69.0","2109","5","","","Ignorant","<div style=""width:500px;""> <p>How strongly do you feel that <strong>knowing</strong> is a good fit for the opposite side of the <strong>Ignorant</strong> scale?</p></div>","4"
"","","","","","survey-text","70","1049083","0.0-70.0","27516","{""Q0"":""lazy""}","","","Energetic","",""
"","","","","","html-slider-response","71","1052249","0.0-71.0","3154","4","","","Energetic","<div style=""width:500px;""> <p>How strongly do you feel that <strong>lazy</strong> is a good fit for the opposite side of the <strong>Energetic</strong> scale?</p></div>","4"
"","","","","","survey-text","72","1062723","0.0-72.0","10454","{""Q0"":""impatient""}","","","Patient","",""
"","","","","","html-slider-response","73","1064962","0.0-73.0","2227","7","","","Patient","<div style=""width:500px;""> <p>How strongly do you feel that <strong>impatient</strong> is a good fit for the opposite side of the <strong>Patient</strong> scale?</p></div>","4"
"","","","","","survey-text","74","1075700","0.0-74.0","10726","{""Q0"":""aggressive""}","","","Submissive","",""
"","","","","","html-slider-response","75","1080277","0.0-75.0","4562","6","","","Submissive","<div style=""width:500px;""> <p>How strongly do you feel that <strong>aggressive</strong> is a good fit for the opposite side of the <strong>Submissive</strong> scale?</p></div>","4"
"","","","","","survey-text","76","1138968","0.0-76.0","58676","{""Q0"":""rational""}","","","Creative","",""
"","","","","","html-slider-response","77","1142389","0.0-77.0","3404","2","","","Creative","<div style=""width:500px;""> <p>How strongly do you feel that <strong>rational</strong> is a good fit for the opposite side of the <strong>Creative</strong> scale?</p></div>","4"
"","","","","","survey-text","78","1169631","0.0-78.0","27225","{""Q0"":""easygoing""}","","","Combative","",""
"","","","","","html-slider-response","79","1172838","0.0-79.0","3201","6","","","Combative","<div style=""width:500px;""> <p>How strongly do you feel that <strong>easygoing</strong> is a good fit for the opposite side of the <strong>Combative</strong> scale?</p></div>","4"
"","","","","","survey-text","80","1182100","0.0-80.0","9214","{""Q0"":""confident""}","","","Self-critical","",""
"","","","","","html-slider-response","81","1185030","0.0-81.0","2924","5","","","Self-critical","<div style=""width:500px;""> <p>How strongly do you feel that <strong>confident</strong> is a good fit for the opposite side of the <strong>Self-critical</strong> scale?</p></div>","4"
"","","","","","survey-text","82","1190367","0.0-82.0","5322","{""Q0"":""lax""}","","","Strict","",""
"","","","","","html-slider-response","83","1192783","0.0-83.0","2403","6","","","Strict","<div style=""width:500px;""> <p>How strongly do you feel that <strong>lax</strong> is a good fit for the opposite side of the <strong>Strict</strong> scale?</p></div>","4"
"","","","","","survey-text","84","1204824","0.0-84.0","12027","{""Q0"":""close-minded""}","","","Open-minded","",""
"","","","","","html-slider-response","85","1206983","0.0-85.0","2149","7","","","Open-minded","<div style=""width:500px;""> <p>How strongly do you feel that <strong>close-minded</strong> is a good fit for the opposite side of the <strong>Open-minded</strong> scale?</p></div>","4"
"","","","","","survey-text","86","1251915","0.0-86.0","44915","{""Q0"":""mature""}","","","Youthful","",""
"","","","","","html-slider-response","87","1254184","0.0-87.0","2261","4","","","Youthful","<div style=""width:500px;""> <p>How strongly do you feel that <strong>mature</strong> is a good fit for the opposite side of the <strong>Youthful</strong> scale?</p></div>","4"
"","","","","","survey-text","88","1263160","0.0-88.0","8954","{""Q0"":""sickly""}","","","Healthy","",""
"","","","","","html-slider-response","89","1265640","0.0-89.0","2474","7","","","Healthy","<div style=""width:500px;""> <p>How strongly do you feel that <strong>sickly</strong> is a good fit for the opposite side of the <strong>Healthy</strong> scale?</p></div>","4"
"","","","","","survey-text","90","1275226","0.0-90.0","9574","{""Q0"":""impractical""}","","","Practical","",""
"","","","","","html-slider-response","91","1277489","0.0-91.0","2253","7","","","Practical","<div style=""width:500px;""> <p>How strongly do you feel that <strong>impractical</strong> is a good fit for the opposite side of the <strong>Practical</strong> scale?</p></div>","4"
"","","","","","survey-text","92","1296883","0.0-92.0","19370","{""Q0"":""unreasonable""}","","","Reasonable","",""
"","","","","","html-slider-response","93","1299057","0.0-93.0","2162","7","","","Reasonable","<div style=""width:500px;""> <p>How strongly do you feel that <strong>unreasonable</strong> is a good fit for the opposite side of the <strong>Reasonable</strong> scale?</p></div>","4"
"","","","","","survey-text","94","1321545","0.0-94.0","22467","{""Q0"":""placid""}","","","Rebellious","",""
"","","","","","html-slider-response","95","1325866","0.0-95.0","4316","5","","","Rebellious","<div style=""width:500px;""> <p>How strongly do you feel that <strong>placid</strong> is a good fit for the opposite side of the <strong>Rebellious</strong> scale?</p></div>","4"
"","","","","","survey-text","96","1338644","0.0-96.0","12762","{""Q0"":""caring""}","","","Abusive","",""
"","","","","","html-slider-response","97","1341362","0.0-97.0","2707","5","","","Abusive","<div style=""width:500px;""> <p>How strongly do you feel that <strong>caring</strong> is a good fit for the opposite side of the <strong>Abusive</strong> scale?</p></div>","4"
"","","","","","survey-text","98","1378501","0.0-98.0","37103","{""Q0"":""reserved""}","","","Outspoken","",""
"","","","","","html-slider-response","99","1380702","0.0-99.0","2192","3","","","Outspoken","<div style=""width:500px;""> <p>How strongly do you feel that <strong>reserved</strong> is a good fit for the opposite side of the <strong>Outspoken</strong> scale?</p></div>","4"
"","","","","","survey-text","100","1394788","0.0-100.0","14067","{""Q0"":""illiterate""}","","","Well-educated","",""
"","","","","","html-slider-response","101","1397612","0.0-101.0","2818","7","","","Well-educated","<div style=""width:500px;""> <p>How strongly do you feel that <strong>illiterate</strong> is a good fit for the opposite side of the <strong>Well-educated</strong> scale?</p></div>","4"
"","","","","","survey-text","102","1415590","0.0-102.0","17964","{""Q0"":""accepting""}","","","Condescending","",""
"","","","","","html-slider-response","103","1418269","0.0-103.0","2667","5","","","Condescending","<div style=""width:500px;""> <p>How strongly do you feel that <strong>accepting</strong> is a good fit for the opposite side of the <strong>Condescending</strong> scale?</p></div>","4"
"","","","","","survey-text","104","1427110","0.0-104.0","8829","{""Q0"":""insincere""}","","","Sincere","",""
"","","","","","html-slider-response","105","1429583","0.0-105.0","2459","7","","","Sincere","<div style=""width:500px;""> <p>How strongly do you feel that <strong>insincere</strong> is a good fit for the opposite side of the <strong>Sincere</strong> scale?</p></div>","4"
"","","","","","survey-text","106","1445805","0.0-106.0","16205","{""Q0"":""brash""}","","","Sensitive","",""
"","","","","","html-slider-response","107","1447927","0.0-107.0","2115","6","","","Sensitive","<div style=""width:500px;""> <p>How strongly do you feel that <strong>brash</strong> is a good fit for the opposite side of the <strong>Sensitive</strong> scale?</p></div>","4"
"","","","","","survey-text","108","1503532","0.0-108.0","55581","{""Q0"":""acceptinh""}","","","Defensive","",""
"","","","","","html-slider-response","109","1505375","0.0-109.0","1836","5","","","Defensive","<div style=""width:500px;""> <p>How strongly do you feel that <strong>acceptinh</strong> is a good fit for the opposite side of the <strong>Defensive</strong> scale?</p></div>","4"
"","","","","","survey-text","110","1519360","0.0-110.0","13968","{""Q0"":""happy""}","","","Angry","",""
"","","","","","html-slider-response","111","1521864","0.0-111.0","2491","5","","","Angry","<div style=""width:500px;""> <p>How strongly do you feel that <strong>happy</strong> is a good fit for the opposite side of the <strong>Angry</strong> scale?</p></div>","4"
"","","","","","survey-text","112","1580041","0.0-112.0","58164","{""Q0"":""lax""}","","","Punctual","",""
"","","","","","html-slider-response","113","1582244","0.0-113.0","2192","3","","","Punctual","<div style=""width:500px;""> <p>How strongly do you feel that <strong>lax</strong> is a good fit for the opposite side of the <strong>Punctual</strong> scale?</p></div>","4"
"","","","","","survey-text","114","1604020","0.0-114.0","21761","{""Q0"":""simpleminded""}","","","Intellectual","",""
"","","","","","html-slider-response","115","1606235","0.0-115.0","2201","3","","","Intellectual","<div style=""width:500px;""> <p>How strongly do you feel that <strong>simpleminded</strong> is a good fit for the opposite side of the <strong>Intellectual</strong> scale?</p></div>","4"
"","","","","","survey-text","116","1611340","0.0-116.0","5090","{""Q0"":""nice""}","","","Mean","",""
"","","","","","html-slider-response","117","1613547","0.0-117.0","2196","7","","","Mean","<div style=""width:500px;""> <p>How strongly do you feel that <strong>nice</strong> is a good fit for the opposite side of the <strong>Mean</strong> scale?</p></div>","4"
"","","","","","survey-text","118","1623900","0.0-118.0","10341","{""Q0"":""inarticulate""}","","","Articulate","",""
"","","","","","html-slider-response","119","1626693","0.0-119.0","2780","7","","","Articulate","<div style=""width:500px;""> <p>How strongly do you feel that <strong>inarticulate</strong> is a good fit for the opposite side of the <strong>Articulate</strong> scale?</p></div>","4"
"","","","","","survey-text","120","1660900","0.0-120.0","34182","{""Q0"":""hedonistic""}","","","Prudish","",""
"","","","","","html-slider-response","121","1662983","0.0-121.0","2077","6","","","Prudish","<div style=""width:500px;""> <p>How strongly do you feel that <strong>hedonistic</strong> is a good fit for the opposite side of the <strong>Prudish</strong> scale?</p></div>","4"
"","","","","","survey-text","122","1703647","0.0-122.0","40641","{""Q0"":""carefree""}","","","Determined","",""
"","","","","","html-slider-response","123","1706029","0.0-123.0","2375","3","","","Determined","<div style=""width:500px;""> <p>How strongly do you feel that <strong>carefree</strong> is a good fit for the opposite side of the <strong>Determined</strong> scale?</p></div>","4"
"","","","","","survey-text","124","1757810","0.0-124.0","51763","{""Q0"":""thoughtless""}","","","Thoughtful","",""
"","","","","","html-slider-response","125","1759889","0.0-125.0","2065","7","","","Thoughtful","<div style=""width:500px;""> <p>How strongly do you feel that <strong>thoughtless</strong> is a good fit for the opposite side of the <strong>Thoughtful</strong> scale?</p></div>","4"
"","","","","","survey-text","126","1765074","0.0-126.0","5171","{""Q0"":""weak""}","","","Strong","",""
"","","","","","html-slider-response","127","1767089","0.0-127.0","2004","5","","","Strong","<div style=""width:500px;""> <p>How strongly do you feel that <strong>weak</strong> is a good fit for the opposite side of the <strong>Strong</strong> scale?</p></div>","4"
"","","","","","survey-text","128","1777117","0.0-128.0","10011","{""Q0"":""inconsistent""}","","","Consistent","",""
"","","","","","html-slider-response","129","1779712","0.0-129.0","2587","7","","","Consistent","<div style=""width:500px;""> <p>How strongly do you feel that <strong>inconsistent</strong> is a good fit for the opposite side of the <strong>Consistent</strong> scale?</p></div>","4"
"","","","","","survey-text","130","1865366","0.0-130.0","85638","{""Q0"":""undignified""}","","","Dignified","",""
"","","","","","html-slider-response","131","1867475","0.0-131.0","2096","5","","","Dignified","<div style=""width:500px;""> <p>How strongly do you feel that <strong>undignified</strong> is a good fit for the opposite side of the <strong>Dignified</strong> scale?</p></div>","4"
"","","","","","survey-text","132","1875300","0.0-132.0","7807","{""Q0"":""cowardly""}","","","Courageous","",""
"","","","","","html-slider-response","133","1878187","0.0-133.0","2876","7","","","Courageous","<div style=""width:500px;""> <p>How strongly do you feel that <strong>cowardly</strong> is a good fit for the opposite side of the <strong>Courageous</strong> scale?</p></div>","4"
"","","","","","survey-text","134","1888658","0.0-134.0","10452","{""Q0"":""openminded""}","","","Prejudiced","",""
"","","","","","html-slider-response","135","1892116","0.0-135.0","3452","6","","","Prejudiced","<div style=""width:500px;""> <p>How strongly do you feel that <strong>openminded</strong> is a good fit for the opposite side of the <strong>Prejudiced</strong> scale?</p></div>","4"
"","","","","","survey-text","136","1899277","0.0-136.0","7147","{""Q0"":""aggressive""}","","","Passive","",""
"","","","","","html-slider-response","137","1901453","0.0-137.0","2165","7","","","Passive","<div style=""width:500px;""> <p>How strongly do you feel that <strong>aggressive</strong> is a good fit for the opposite side of the <strong>Passive</strong> scale?</p></div>","4"
"","","","","","survey-text","138","1908797","0.0-138.0","7330","{""Q0"":""fake""}","","","Natural","",""
"","","","","","html-slider-response","139","1911532","0.0-139.0","2723","6","","","Natural","<div style=""width:500px;""> <p>How strongly do you feel that <strong>fake</strong> is a good fit for the opposite side of the <strong>Natural</strong> scale?</p></div>","4"
"","","","","","survey-text","140","1917958","0.0-140.0","6410","{""Q0"":""morose""}","","","Happy","",""
"","","","","","html-slider-response","141","1920372","0.0-141.0","2403","6","","","Happy","<div style=""width:500px;""> <p>How strongly do you feel that <strong>morose</strong> is a good fit for the opposite side of the <strong>Happy</strong> scale?</p></div>","4"
"","","","","","survey-text","142","1931685","0.0-142.0","11299","{""Q0"":""combative""}","","","Agreeable","",""
"","","","","","html-slider-response","143","1934292","0.0-143.0","2596","6","","","Agreeable","<div style=""width:500px;""> <p>How strongly do you feel that <strong>combative</strong> is a good fit for the opposite side of the <strong>Agreeable</strong> scale?</p></div>","4"
"","","","","","survey-text","144","1956336","0.0-144.0","22016","{""Q0"":""haphazard""}","","","Conscientious","",""
"","","","","","html-slider-response","145","1958750","0.0-145.0","2408","6","","","Conscientious","<div style=""width:500px;""> <p>How strongly do you feel that <strong>haphazard</strong> is a good fit for the opposite side of the <strong>Conscientious</strong> scale?</p></div>","4"
"","","","","","survey-text","146","1966294","0.0-146.0","7531","{""Q0"":""stoic""}","","","Emotional","",""
"","","","","","html-slider-response","147","1968660","0.0-147.0","2355","6","","","Emotional","<div style=""width:500px;""> <p>How strongly do you feel that <strong>stoic</strong> is a good fit for the opposite side of the <strong>Emotional</strong> scale?</p></div>","4"
"","","","","","survey-text","148","2024473","0.0-148.0","55797","{""Q0"":""lax""}","","","Persistent","",""
"","","","","","html-slider-response","149","2026898","0.0-149.0","2408","1","","","Persistent","<div style=""width:500px;""> <p>How strongly do you feel that <strong>lax</strong> is a good fit for the opposite side of the <strong>Persistent</strong> scale?</p></div>","4"
"","","","","","survey-text","150","2036377","0.0-150.0","9464","{""Q0"":""mellow""}","","","Intense","",""
"","","","","","html-slider-response","151","2041369","0.0-151.0","4979","6","","","Intense","<div style=""width:500px;""> <p>How strongly do you feel that <strong>mellow</strong> is a good fit for the opposite side of the <strong>Intense</strong> scale?</p></div>","4"
"","","","","","survey-text","152","2055303","0.0-152.0","13913","{""Q0"":""ncompetent""}","","","Competent","",""
"","","","","","html-slider-response","153","2058489","0.0-153.0","3180","7","","","Competent","<div style=""width:500px;""> <p>How strongly do you feel that <strong>ncompetent</strong> is a good fit for the opposite side of the <strong>Competent</strong> scale?</p></div>","4"
"","","","","","survey-text","154","2077116","0.0-154.0","18612","{""Q0"":""needy""}","","","Independent","",""
"","","","","","html-slider-response","155","2079347","0.0-155.0","2206","6","","","Independent","<div style=""width:500px;""> <p>How strongly do you feel that <strong>needy</strong> is a good fit for the opposite side of the <strong>Independent</strong> scale?</p></div>","4"
"","","","","","survey-text","156","2086387","0.0-156.0","7027","{""Q0"":""masculine""}","","","Feminine","",""
"","","","","","html-slider-response","157","2088553","0.0-157.0","2155","7","","","Feminine","<div style=""width:500px;""> <p>How strongly do you feel that <strong>masculine</strong> is a good fit for the opposite side of the <strong>Feminine</strong> scale?</p></div>","4"
"","","","","","survey-text","158","2100819","0.0-158.0","12251","{""Q0"":""sketchy""}","","","Trustworthy","",""
"","","","","","html-slider-response","159","2103947","0.0-159.0","3117","6","","","Trustworthy","<div style=""width:500px;""> <p>How strongly do you feel that <strong>sketchy</strong> is a good fit for the opposite side of the <strong>Trustworthy</strong> scale?</p></div>","4"
"","","","","","survey-text","160","2140289","0.0-160.0","36325","{""Q0"":""mature""}","","","Self-pitying","",""
"","","","","","html-slider-response","161","2142706","0.0-161.0","2409","3","","","Self-pitying","<div style=""width:500px;""> <p>How strongly do you feel that <strong>mature</strong> is a good fit for the opposite side of the <strong>Self-pitying</strong> scale?</p></div>","4"
"","","","","","survey-text","162","2149399","0.0-162.0","6675","{""Q0"":""calm""}","","","Anxious","",""
"","","","","","html-slider-response","163","2153299","0.0-163.0","3894","6","","","Anxious","<div style=""width:500px;""> <p>How strongly do you feel that <strong>calm</strong> is a good fit for the opposite side of the <strong>Anxious</strong> scale?</p></div>","4"
"","","","","","survey-text","164","2159244","0.0-164.0","5931","{""Q0"":""ugly""}","","","Beautiful","",""
"","","","","","html-slider-response","165","2161395","0.0-165.0","2141","7","","","Beautiful","<div style=""width:500px;""> <p>How strongly do you feel that <strong>ugly</strong> is a good fit for the opposite side of the <strong>Beautiful</strong> scale?</p></div>","4"
"","","","","","survey-text","166","2169254","0.0-166.0","7854","{""Q0"":""secular""}","","","Religious","",""
"","","","","","html-slider-response","167","2171108","0.0-167.0","1844","7","","","Religious","<div style=""width:500px;""> <p>How strongly do you feel that <strong>secular</strong> is a good fit for the opposite side of the <strong>Religious</strong> scale?</p></div>","4"
"","","","","","survey-text","168","2219358","0.0-168.0","48227","{""Q0"":""ambitious""}","","","Easygoing","",""
"","","","","","html-slider-response","169","2221454","0.0-169.0","2088","5","","","Easygoing","<div style=""width:500px;""> <p>How strongly do you feel that <strong>ambitious</strong> is a good fit for the opposite side of the <strong>Easygoing</strong> scale?</p></div>","4"
"","","","","","survey-text","170","2268095","0.0-170.0","46618","{""Q0"":""honest""}","","","Manipulative","",""
"","","","","","html-slider-response","171","2270207","0.0-171.0","2100","4","","","Manipulative","<div style=""width:500px;""> <p>How strongly do you feel that <strong>honest</strong> is a good fit for the opposite side of the <strong>Manipulative</strong> scale?</p></div>","4"
"","","","","","survey-text","172","2281568","0.0-172.0","11348","{""Q0"":""controlled""}","","","Compulsive","",""
"","","","","","html-slider-response","173","2285127","0.0-173.0","3547","5","","","Compulsive","<div style=""width:500px;""> <p>How strongly do you feel that <strong>controlled</strong> is a good fit for the opposite side of the <strong>Compulsive</strong> scale?</p></div>","4"
"","","","","","survey-text","174","2289120","0.0-174.0","3984","{""age"":""62""}","","","","",""
"","","","","","survey-multi-choice","175","2291449","0.0-175.0","2316","{""race"":""White""}","[0]","","","",""
"","","","","","survey-multi-choice","176","2300402","0.0-176.0","8935","{""hispanic"":""Not Hispanic or Latino"",""gender"":""Female"",""sexOrientation"":""Heterosexual or straight"",""education"":""Some College""}","[0,1,2,3]","","","",""
