"success","timeout","failed_images","failed_audio","failed_video","trial_type","trial_index","time_elapsed","internal_node_id","rt","response","question_order","view_history","trait","stimulus","slider_start"
"true","false","[]","[]","[]","preload","0","1436","0.0-0.0","","","","","","",""
"","","","","","survey-text","1","8706","0.0-1.0","7264","{""Q0"":""62858e3a433a7a27305f1992""}","","","","",""
"","","","","","survey-multi-choice","2","13678","0.0-2.0","4968","{""Eng"":""Yes""}","[0]","","","",""
"","","","","","instructions","3","47964","0.0-3.0","34283","","","[{""page_index"":0,""viewing_time"":26646},{""page_index"":1,""viewing_time"":7637}]","","",""
"","","","","","instructions","4","52521","0.0-4.0","4555","","","[{""page_index"":0,""viewing_time"":4555}]","","",""
"","","","","","instructions","5","71655","0.0-5.0","19133","","","[{""page_index"":0,""viewing_time"":7125},{""page_index"":1,""viewing_time"":7299},{""page_index"":2,""viewing_time"":4709}]","","",""
"","","","","","survey-text","6","132914","0.0-6.0","61252","{""Q0"":""unsociable""}","","","Sociable","",""
"","","","","","html-slider-response","7","147099","0.0-7.0","14182","6","","","Sociable","<div style=""width:500px;""> <p>How strongly do you feel that <strong>unsociable</strong> is a good fit for the opposite side of the <strong>Sociable</strong> scale?</p></div>","4"
"","","","","","survey-text","8","192381","0.0-8.0","45278","{""Q0"":""feelings""}","","","Conscientious","",""
"","","","","","html-slider-response","9","198071","0.0-9.0","5688","4","","","Conscientious","<div style=""width:500px;""> <p>How strongly do you feel that <strong>feelings</strong> is a good fit for the opposite side of the <strong>Conscientious</strong> scale?</p></div>","4"
"","","","","","survey-text","10","250816","0.0-10.0","52741","{""Q0"":""nosey""}","","","Curious","",""
"","","","","","html-slider-response","11","255292","0.0-11.0","4474","3","","","Curious","<div style=""width:500px;""> <p>How strongly do you feel that <strong>nosey</strong> is a good fit for the opposite side of the <strong>Curious</strong> scale?</p></div>","4"
"","","","","","survey-text","12","305277","0.0-12.0","49981","{""Q0"":""positive""}","","","Critical","",""
"","","","","","html-slider-response","13","309674","0.0-13.0","4395","4","","","Critical","<div style=""width:500px;""> <p>How strongly do you feel that <strong>positive</strong> is a good fit for the opposite side of the <strong>Critical</strong> scale?</p></div>","4"
"","","","","","survey-text","14","381525","0.0-14.0","71847","{""Q0"":""sympathetic""}","","","Empathetic","",""
"","","","","","html-slider-response","15","386538","0.0-15.0","5011","5","","","Empathetic","<div style=""width:500px;""> <p>How strongly do you feel that <strong>sympathetic</strong> is a good fit for the opposite side of the <strong>Empathetic</strong> scale?</p></div>","4"
"","","","","","survey-text","16","398686","0.0-16.0","12145","{""Q0"":""weak""}","","","Strong","",""
"","","","","","html-slider-response","17","410607","0.0-17.0","11919","7","","","Strong","<div style=""width:500px;""> <p>How strongly do you feel that <strong>weak</strong> is a good fit for the opposite side of the <strong>Strong</strong> scale?</p></div>","4"
"","","","","","survey-text","18","427181","0.0-18.0","16571","{""Q0"":""kind""}","","","Mean","",""
"","","","","","html-slider-response","19","432679","0.0-19.0","5496","6","","","Mean","<div style=""width:500px;""> <p>How strongly do you feel that <strong>kind</strong> is a good fit for the opposite side of the <strong>Mean</strong> scale?</p></div>","4"
"","","","","","survey-text","20","454762","0.0-20.0","22080","{""Q0"":""cold""}","","","Humble","",""
"","","","","","html-slider-response","21","458523","0.0-21.0","3759","3","","","Humble","<div style=""width:500px;""> <p>How strongly do you feel that <strong>cold</strong> is a good fit for the opposite side of the <strong>Humble</strong> scale?</p></div>","4"
"","","","","","survey-text","22","479843","0.0-22.0","21316","{""Q0"":""lazy""}","","","Energetic","",""
"","","","","","html-slider-response","23","484202","0.0-23.0","4358","6","","","Energetic","<div style=""width:500px;""> <p>How strongly do you feel that <strong>lazy</strong> is a good fit for the opposite side of the <strong>Energetic</strong> scale?</p></div>","4"
"","","","","","survey-text","24","498897","0.0-24.0","14691","{""Q0"":""uneducated""}","","","Well-educated","",""
"","","","","","html-slider-response","25","502532","0.0-25.0","3633","7","","","Well-educated","<div style=""width:500px;""> <p>How strongly do you feel that <strong>uneducated</strong> is a good fit for the opposite side of the <strong>Well-educated</strong> scale?</p></div>","4"
"","","","","","survey-text","26","598045","0.0-26.0","95509","{""Q0"":""incompetent""}","","","Competent","",""
"","","","","","html-slider-response","27","602451","0.0-27.0","4404","7","","","Competent","<div style=""width:500px;""> <p>How strongly do you feel that <strong>incompetent</strong> is a good fit for the opposite side of the <strong>Competent</strong> scale?</p></div>","4"
"","","","","","survey-text","28","648408","0.0-28.0","45954","{""Q0"":""dull""}","","","Charismatic","",""
"","","","","","html-slider-response","29","652733","0.0-29.0","4323","4","","","Charismatic","<div style=""width:500px;""> <p>How strongly do you feel that <strong>dull</strong> is a good fit for the opposite side of the <strong>Charismatic</strong> scale?</p></div>","4"
"","","","","","survey-text","30","704186","0.0-30.0","51450","{""Q0"":""mild""}","","","Intense","",""
"","","","","","html-slider-response","31","708127","0.0-31.0","3939","4","","","Intense","<div style=""width:500px;""> <p>How strongly do you feel that <strong>mild</strong> is a good fit for the opposite side of the <strong>Intense</strong> scale?</p></div>","4"
"","","","","","survey-text","32","792182","0.0-32.0","84052","{""Q0"":""impartial""}","","","Prejudiced","",""
"","","","","","html-slider-response","33","800438","0.0-33.0","8253","5","","","Prejudiced","<div style=""width:500px;""> <p>How strongly do you feel that <strong>impartial</strong> is a good fit for the opposite side of the <strong>Prejudiced</strong> scale?</p></div>","4"
"","","","","","survey-text","34","848060","0.0-34.0","47618","{""Q0"":""uncreative""}","","","Creative","",""
"","","","","","html-slider-response","35","857664","0.0-35.0","9602","3","","","Creative","<div style=""width:500px;""> <p>How strongly do you feel that <strong>uncreative</strong> is a good fit for the opposite side of the <strong>Creative</strong> scale?</p></div>","4"
"","","","","","survey-text","36","875542","0.0-36.0","17875","{""Q0"":""unnatural""}","","","Natural","",""
"","","","","","html-slider-response","37","879068","0.0-37.0","3524","6","","","Natural","<div style=""width:500px;""> <p>How strongly do you feel that <strong>unnatural</strong> is a good fit for the opposite side of the <strong>Natural</strong> scale?</p></div>","4"
"","","","","","survey-text","38","928124","0.0-38.0","49051","{""Q0"":""masculine""}","","","Feminine","",""
"","","","","","html-slider-response","39","931587","0.0-39.0","3461","7","","","Feminine","<div style=""width:500px;""> <p>How strongly do you feel that <strong>masculine</strong> is a good fit for the opposite side of the <strong>Feminine</strong> scale?</p></div>","4"
"","","","","","survey-text","40","958154","0.0-40.0","26563","{""Q0"":""observant""}","","","Unobservant","",""
"","","","","","html-slider-response","41","971641","0.0-41.0","13485","7","","","Unobservant","<div style=""width:500px;""> <p>How strongly do you feel that <strong>observant</strong> is a good fit for the opposite side of the <strong>Unobservant</strong> scale?</p></div>","4"
"","","","","","survey-text","42","1011067","0.0-42.0","39423","{""Q0"":""quiet""}","","","Bossy","",""
"","","","","","html-slider-response","43","1014838","0.0-43.0","3768","3","","","Bossy","<div style=""width:500px;""> <p>How strongly do you feel that <strong>quiet</strong> is a good fit for the opposite side of the <strong>Bossy</strong> scale?</p></div>","4"
"","","","","","survey-text","44","1037939","0.0-44.0","23098","{""Q0"":""elderly""}","","","Youthful","",""
"","","","","","html-slider-response","45","1042405","0.0-45.0","4465","5","","","Youthful","<div style=""width:500px;""> <p>How strongly do you feel that <strong>elderly</strong> is a good fit for the opposite side of the <strong>Youthful</strong> scale?</p></div>","4"
"","","","","","survey-text","46","1097796","0.0-46.0","55387","{""Q0"":""believe""}","","","Skeptical","",""
"","","","","","html-slider-response","47","1103340","0.0-47.0","5542","6","","","Skeptical","<div style=""width:500px;""> <p>How strongly do you feel that <strong>believe</strong> is a good fit for the opposite side of the <strong>Skeptical</strong> scale?</p></div>","4"
"","","","","","survey-text","48","1188538","0.0-48.0","85194","{""Q0"":""disobedient""}","","","Submissive","",""
"","","","","","html-slider-response","49","1194502","0.0-49.0","5962","6","","","Submissive","<div style=""width:500px;""> <p>How strongly do you feel that <strong>disobedient</strong> is a good fit for the opposite side of the <strong>Submissive</strong> scale?</p></div>","4"
"","","","","","survey-text","50","1222102","0.0-50.0","27596","{""Q0"":""irresponsible""}","","","Responsible","",""
"","","","","","html-slider-response","51","1225786","0.0-51.0","3682","6","","","Responsible","<div style=""width:500px;""> <p>How strongly do you feel that <strong>irresponsible</strong> is a good fit for the opposite side of the <strong>Responsible</strong> scale?</p></div>","4"
"","","","","","survey-text","52","1280046","0.0-52.0","54257","{""Q0"":""untraditional""}","","","Traditional","",""
"","","","","","html-slider-response","53","1283837","0.0-53.0","3788","5","","","Traditional","<div style=""width:500px;""> <p>How strongly do you feel that <strong>untraditional</strong> is a good fit for the opposite side of the <strong>Traditional</strong> scale?</p></div>","4"
"","","","","","survey-text","54","1331171","0.0-54.0","47330","{""Q0"":""unethical""}","","","Ethical","",""
"","","","","","html-slider-response","55","1334536","0.0-55.0","3363","7","","","Ethical","<div style=""width:500px;""> <p>How strongly do you feel that <strong>unethical</strong> is a good fit for the opposite side of the <strong>Ethical</strong> scale?</p></div>","4"
"","","","","","survey-text","56","1440847","0.0-56.0","106308","{""Q0"":""quite""}","","","Outspoken","",""
"","","","","","html-slider-response","57","1444490","0.0-57.0","3640","5","","","Outspoken","<div style=""width:500px;""> <p>How strongly do you feel that <strong>quite</strong> is a good fit for the opposite side of the <strong>Outspoken</strong> scale?</p></div>","4"
"","","","","","survey-text","58","1542654","0.0-58.0","98159","{""Q0"":""proper""}","","","Prudish","",""
"","","","","","html-slider-response","59","1546481","0.0-59.0","3826","5","","","Prudish","<div style=""width:500px;""> <p>How strongly do you feel that <strong>proper</strong> is a good fit for the opposite side of the <strong>Prudish</strong> scale?</p></div>","4"
"","","","","","survey-text","60","1556590","0.0-60.0","10105","{""Q0"":""smart""}","","","Ignorant","",""
"","","","","","html-slider-response","61","1559963","0.0-61.0","3371","7","","","Ignorant","<div style=""width:500px;""> <p>How strongly do you feel that <strong>smart</strong> is a good fit for the opposite side of the <strong>Ignorant</strong> scale?</p></div>","4"
"","","","","","survey-text","62","1578803","0.0-62.0","18837","{""Q0"":""stiff""}","","","Flexible","",""
"","","","","","html-slider-response","63","1586102","0.0-63.0","7296","4","","","Flexible","<div style=""width:500px;""> <p>How strongly do you feel that <strong>stiff</strong> is a good fit for the opposite side of the <strong>Flexible</strong> scale?</p></div>","4"
"","","","","","survey-text","64","1604447","0.0-64.0","18341","{""Q0"":""impractical""}","","","Practical","",""
"","","","","","html-slider-response","65","1608023","0.0-65.0","3574","5","","","Practical","<div style=""width:500px;""> <p>How strongly do you feel that <strong>impractical</strong> is a good fit for the opposite side of the <strong>Practical</strong> scale?</p></div>","4"
"","","","","","survey-text","66","1620198","0.0-66.0","12171","{""Q0"":""unreasonable""}","","","Reasonable","",""
"","","","","","html-slider-response","67","1623765","0.0-67.0","3565","6","","","Reasonable","<div style=""width:500px;""> <p>How strongly do you feel that <strong>unreasonable</strong> is a good fit for the opposite side of the <strong>Reasonable</strong> scale?</p></div>","4"
"","","","","","survey-text","68","1634811","0.0-68.0","11042","{""Q0"":""relaxed""}","","","Anxious","",""
"","","","","","html-slider-response","69","1638324","0.0-69.0","3510","6","","","Anxious","<div style=""width:500px;""> <p>How strongly do you feel that <strong>relaxed</strong> is a good fit for the opposite side of the <strong>Anxious</strong> scale?</p></div>","4"
"","","","","","survey-text","70","1671720","0.0-70.0","33393","{""Q0"":""smart""}","","","Open-minded","",""
"","","","","","html-slider-response","71","1674964","0.0-71.0","3243","4","","","Open-minded","<div style=""width:500px;""> <p>How strongly do you feel that <strong>smart</strong> is a good fit for the opposite side of the <strong>Open-minded</strong> scale?</p></div>","4"
"","","","","","survey-text","72","1714873","0.0-72.0","39905","{""Q0"":""undignified""}","","","Dignified","",""
"","","","","","html-slider-response","73","1718548","0.0-73.0","3673","6","","","Dignified","<div style=""width:500px;""> <p>How strongly do you feel that <strong>undignified</strong> is a good fit for the opposite side of the <strong>Dignified</strong> scale?</p></div>","4"
"","","","","","survey-text","74","1739987","0.0-74.0","21435","{""Q0"":""scared""}","","","Courageous","",""
"","","","","","html-slider-response","75","1754359","0.0-75.0","14370","3","","","Courageous","<div style=""width:500px;""> <p>How strongly do you feel that <strong>scared</strong> is a good fit for the opposite side of the <strong>Courageous</strong> scale?</p></div>","4"
"","","","","","survey-text","76","1765666","0.0-76.0","11303","{""Q0"":""kind""}","","","Cruel","",""
"","","","","","html-slider-response","77","1777715","0.0-77.0","12048","5","","","Cruel","<div style=""width:500px;""> <p>How strongly do you feel that <strong>kind</strong> is a good fit for the opposite side of the <strong>Cruel</strong> scale?</p></div>","4"
"","","","","","survey-text","78","1840962","0.0-78.0","63243","{""Q0"":""nonpassive""}","","","Passive","",""
"","","","","","html-slider-response","79","1847432","0.0-79.0","6468","6","","","Passive","<div style=""width:500px;""> <p>How strongly do you feel that <strong>nonpassive</strong> is a good fit for the opposite side of the <strong>Passive</strong> scale?</p></div>","4"
"","","","","","survey-text","80","1858134","0.0-80.0","10698","{""Q0"":""late""}","","","Punctual","",""
"","","","","","html-slider-response","81","1864298","0.0-81.0","6163","6","","","Punctual","<div style=""width:500px;""> <p>How strongly do you feel that <strong>late</strong> is a good fit for the opposite side of the <strong>Punctual</strong> scale?</p></div>","4"
"","","","","","survey-text","82","1914548","0.0-82.0","50246","{""Q0"":""positive""}","","","Self-critical","",""
"","","","","","html-slider-response","83","1917913","0.0-83.0","3364","3","","","Self-critical","<div style=""width:500px;""> <p>How strongly do you feel that <strong>positive</strong> is a good fit for the opposite side of the <strong>Self-critical</strong> scale?</p></div>","4"
"","","","","","survey-text","84","1972866","0.0-84.0","54950","{""Q0"":""weak""}","","","Determined","",""
"","","","","","html-slider-response","85","1978305","0.0-85.0","5436","4","","","Determined","<div style=""width:500px;""> <p>How strongly do you feel that <strong>weak</strong> is a good fit for the opposite side of the <strong>Determined</strong> scale?</p></div>","4"
"","","","","","survey-text","86","2034919","0.0-86.0","56611","{""Q0"":""stupid""}","","","Clever","",""
"","","","","","html-slider-response","87","2040568","0.0-87.0","5647","5","","","Clever","<div style=""width:500px;""> <p>How strongly do you feel that <strong>stupid</strong> is a good fit for the opposite side of the <strong>Clever</strong> scale?</p></div>","4"
"","","","","","survey-text","88","2075040","0.0-88.0","34469","{""Q0"":""gentle""}","","","Abusive","",""
"","","","","","html-slider-response","89","2079793","0.0-89.0","4751","6","","","Abusive","<div style=""width:500px;""> <p>How strongly do you feel that <strong>gentle</strong> is a good fit for the opposite side of the <strong>Abusive</strong> scale?</p></div>","4"
"","","","","","survey-text","90","2092428","0.0-90.0","12632","{""Q0"":""impatient""}","","","Patient","",""
"","","","","","html-slider-response","91","2095119","0.0-91.0","2688","7","","","Patient","<div style=""width:500px;""> <p>How strongly do you feel that <strong>impatient</strong> is a good fit for the opposite side of the <strong>Patient</strong> scale?</p></div>","4"
"","","","","","survey-text","92","2135267","0.0-92.0","40145","{""Q0"":""nonaggressive""}","","","Aggressive","",""
"","","","","","html-slider-response","93","2139042","0.0-93.0","3774","5","","","Aggressive","<div style=""width:500px;""> <p>How strongly do you feel that <strong>nonaggressive</strong> is a good fit for the opposite side of the <strong>Aggressive</strong> scale?</p></div>","4"
"","","","","","survey-text","94","2170721","0.0-94.0","31675","{""Q0"":""respectful""}","","","Condescending","",""
"","","","","","html-slider-response","95","2174997","0.0-95.0","4274","6","","","Condescending","<div style=""width:500px;""> <p>How strongly do you feel that <strong>respectful</strong> is a good fit for the opposite side of the <strong>Condescending</strong> scale?</p></div>","4"
"","","","","","survey-text","96","2184079","0.0-96.0","9078","{""Q0"":""happy""}","","","Angry","",""
"","","","","","html-slider-response","97","2187372","0.0-97.0","3291","7","","","Angry","<div style=""width:500px;""> <p>How strongly do you feel that <strong>happy</strong> is a good fit for the opposite side of the <strong>Angry</strong> scale?</p></div>","4"
"","","","","","survey-text","98","2199196","0.0-98.0","11820","{""Q0"":""dependent""}","","","Independent","",""
"","","","","","html-slider-response","99","2201845","0.0-99.0","2648","7","","","Independent","<div style=""width:500px;""> <p>How strongly do you feel that <strong>dependent</strong> is a good fit for the opposite side of the <strong>Independent</strong> scale?</p></div>","4"
"","","","","","survey-text","100","2240197","0.0-100.0","38347","{""Q0"":""aggressive""}","","","Easygoing","",""
"","","","","","html-slider-response","101","2244189","0.0-101.0","3990","5","","","Easygoing","<div style=""width:500px;""> <p>How strongly do you feel that <strong>aggressive</strong> is a good fit for the opposite side of the <strong>Easygoing</strong> scale?</p></div>","4"
"","","","","","survey-text","102","2285344","0.0-102.0","41151","{""Q0"":""content""}","","","Self-pitying","",""
"","","","","","html-slider-response","103","2288899","0.0-103.0","3553","5","","","Self-pitying","<div style=""width:500px;""> <p>How strongly do you feel that <strong>content</strong> is a good fit for the opposite side of the <strong>Self-pitying</strong> scale?</p></div>","4"
"","","","","","survey-text","104","2300473","0.0-104.0","11570","{""Q0"":""unhealthy""}","","","Healthy","",""
"","","","","","html-slider-response","105","2303442","0.0-105.0","2967","7","","","Healthy","<div style=""width:500px;""> <p>How strongly do you feel that <strong>unhealthy</strong> is a good fit for the opposite side of the <strong>Healthy</strong> scale?</p></div>","4"
"","","","","","survey-text","106","2333599","0.0-106.0","30153","{""Q0"":""pestimistic""}","","","Optimistic","",""
"","","","","","html-slider-response","107","2336597","0.0-107.0","2996","7","","","Optimistic","<div style=""width:500px;""> <p>How strongly do you feel that <strong>pestimistic</strong> is a good fit for the opposite side of the <strong>Optimistic</strong> scale?</p></div>","4"
"","","","","","survey-text","108","2402371","0.0-108.0","65770","{""Q0"":""untrusting""}","","","Trustworthy","",""
"","","","","","html-slider-response","109","2408958","0.0-109.0","6586","5","","","Trustworthy","<div style=""width:500px;""> <p>How strongly do you feel that <strong>untrusting</strong> is a good fit for the opposite side of the <strong>Trustworthy</strong> scale?</p></div>","4"
"","","","","","survey-text","110","2437592","0.0-110.0","28631","{""Q0"":""boring""}","","","Enthusiastic","",""
"","","","","","html-slider-response","111","2442576","0.0-111.0","4982","3","","","Enthusiastic","<div style=""width:500px;""> <p>How strongly do you feel that <strong>boring</strong> is a good fit for the opposite side of the <strong>Enthusiastic</strong> scale?</p></div>","4"
"","","","","","survey-text","112","2459615","0.0-112.0","17036","{""Q0"":""insensitive""}","","","Sensitive","",""
"","","","","","html-slider-response","113","2463040","0.0-113.0","3424","6","","","Sensitive","<div style=""width:500px;""> <p>How strongly do you feel that <strong>insensitive</strong> is a good fit for the opposite side of the <strong>Sensitive</strong> scale?</p></div>","4"
"","","","","","survey-text","114","2518729","0.0-114.0","55685","{""Q0"":""unreligious""}","","","Religious","",""
"","","","","","html-slider-response","115","2529930","0.0-115.0","11198","5","","","Religious","<div style=""width:500px;""> <p>How strongly do you feel that <strong>unreligious</strong> is a good fit for the opposite side of the <strong>Religious</strong> scale?</p></div>","4"
"","","","","","survey-text","116","2552980","0.0-116.0","23046","{""Q0"":""calm""}","","","Compulsive","",""
"","","","","","html-slider-response","117","2555849","0.0-117.0","2867","3","","","Compulsive","<div style=""width:500px;""> <p>How strongly do you feel that <strong>calm</strong> is a good fit for the opposite side of the <strong>Compulsive</strong> scale?</p></div>","4"
"","","","","","survey-text","118","2594937","0.0-118.0","39085","{""Q0"":""hesitant""}","","","Articulate","",""
"","","","","","html-slider-response","119","2601451","0.0-119.0","6512","6","","","Articulate","<div style=""width:500px;""> <p>How strongly do you feel that <strong>hesitant</strong> is a good fit for the opposite side of the <strong>Articulate</strong> scale?</p></div>","4"
"","","","","","survey-text","120","2648493","0.0-120.0","47038","{""Q0"":""shy""}","","","Confident","",""
"","","","","","html-slider-response","121","2651152","0.0-121.0","2658","6","","","Confident","<div style=""width:500px;""> <p>How strongly do you feel that <strong>shy</strong> is a good fit for the opposite side of the <strong>Confident</strong> scale?</p></div>","4"
"","","","","","survey-text","122","2713285","0.0-122.0","62128","{""Q0"":""unimportant""}","","","Serious","",""
"","","","","","html-slider-response","123","2716410","0.0-123.0","3124","6","","","Serious","<div style=""width:500px;""> <p>How strongly do you feel that <strong>unimportant</strong> is a good fit for the opposite side of the <strong>Serious</strong> scale?</p></div>","4"
"","","","","","survey-text","124","2758486","0.0-124.0","42072","{""Q0"":""dense""}","","","Intellectual","",""
"","","","","","html-slider-response","125","2761514","0.0-125.0","3026","5","","","Intellectual","<div style=""width:500px;""> <p>How strongly do you feel that <strong>dense</strong> is a good fit for the opposite side of the <strong>Intellectual</strong> scale?</p></div>","4"
"","","","","","survey-text","126","2773430","0.0-126.0","11913","{""Q0"":""rude""}","","","Thoughtful","",""
"","","","","","html-slider-response","127","2776379","0.0-127.0","2947","5","","","Thoughtful","<div style=""width:500px;""> <p>How strongly do you feel that <strong>rude</strong> is a good fit for the opposite side of the <strong>Thoughtful</strong> scale?</p></div>","4"
"","","","","","survey-text","128","2793182","0.0-128.0","16799","{""Q0"":""amazing""}","","","Weird","",""
"","","","","","html-slider-response","129","2801827","0.0-129.0","8643","3","","","Weird","<div style=""width:500px;""> <p>How strongly do you feel that <strong>amazing</strong> is a good fit for the opposite side of the <strong>Weird</strong> scale?</p></div>","4"
"","","","","","survey-text","130","2853374","0.0-130.0","51544","{""Q0"":""proud""}","","","Jealous","",""
"","","","","","html-slider-response","131","2857565","0.0-131.0","4188","5","","","Jealous","<div style=""width:500px;""> <p>How strongly do you feel that <strong>proud</strong> is a good fit for the opposite side of the <strong>Jealous</strong> scale?</p></div>","4"
"","","","","","survey-text","132","2873249","0.0-132.0","15680","{""Q0"":""organized""}","","","Disorderly","",""
"","","","","","html-slider-response","133","2875692","0.0-133.0","2440","6","","","Disorderly","<div style=""width:500px;""> <p>How strongly do you feel that <strong>organized</strong> is a good fit for the opposite side of the <strong>Disorderly</strong> scale?</p></div>","4"
"","","","","","survey-text","134","2891629","0.0-134.0","15934","{""Q0"":""dumb""}","","","Wise","",""
"","","","","","html-slider-response","135","2899430","0.0-135.0","7799","3","","","Wise","<div style=""width:500px;""> <p>How strongly do you feel that <strong>dumb</strong> is a good fit for the opposite side of the <strong>Wise</strong> scale?</p></div>","4"
"","","","","","survey-text","136","2929218","0.0-136.0","29785","{""Q0"":""disorganized""}","","","Consistent","",""
"","","","","","html-slider-response","137","2934240","0.0-137.0","5020","3","","","Consistent","<div style=""width:500px;""> <p>How strongly do you feel that <strong>disorganized</strong> is a good fit for the opposite side of the <strong>Consistent</strong> scale?</p></div>","4"
"","","","","","survey-text","138","2948590","0.0-138.0","14347","{""Q0"":""harmful""}","","","Careful","",""
"","","","","","html-slider-response","139","2954523","0.0-139.0","5931","5","","","Careful","<div style=""width:500px;""> <p>How strongly do you feel that <strong>harmful</strong> is a good fit for the opposite side of the <strong>Careful</strong> scale?</p></div>","4"
"","","","","","survey-text","140","3010855","0.0-140.0","56328","{""Q0"":""occasional""}","","","Persistent","",""
"","","","","","html-slider-response","141","3015469","0.0-141.0","4612","6","","","Persistent","<div style=""width:500px;""> <p>How strongly do you feel that <strong>occasional</strong> is a good fit for the opposite side of the <strong>Persistent</strong> scale?</p></div>","4"
"","","","","","survey-text","142","3074514","0.0-142.0","59042","{""Q0"":""peaceable""}","","","Combative","",""
"","","","","","html-slider-response","143","3077708","0.0-143.0","3192","5","","","Combative","<div style=""width:500px;""> <p>How strongly do you feel that <strong>peaceable</strong> is a good fit for the opposite side of the <strong>Combative</strong> scale?</p></div>","4"
"","","","","","survey-text","144","3108620","0.0-144.0","30909","{""Q0"":""typical""}","","","Atypical","",""
"","","","","","html-slider-response","145","3113276","0.0-145.0","4654","3","","","Atypical","<div style=""width:500px;""> <p>How strongly do you feel that <strong>typical</strong> is a good fit for the opposite side of the <strong>Atypical</strong> scale?</p></div>","4"
"","","","","","survey-text","146","3125438","0.0-146.0","12159","{""Q0"":""easy""}","","","Strict","",""
"","","","","","html-slider-response","147","3129001","0.0-147.0","3561","5","","","Strict","<div style=""width:500px;""> <p>How strongly do you feel that <strong>easy</strong> is a good fit for the opposite side of the <strong>Strict</strong> scale?</p></div>","4"
"","","","","","survey-text","148","3139643","0.0-148.0","10639","{""Q0"":""happy""}","","","Emotional","",""
"","","","","","html-slider-response","149","3145103","0.0-149.0","5457","5","","","Emotional","<div style=""width:500px;""> <p>How strongly do you feel that <strong>happy</strong> is a good fit for the opposite side of the <strong>Emotional</strong> scale?</p></div>","4"
"","","","","","survey-text","150","3155984","0.0-150.0","10877","{""Q0"":""sweet""}","","","Grumpy","",""
"","","","","","html-slider-response","151","3159311","0.0-151.0","3325","5","","","Grumpy","<div style=""width:500px;""> <p>How strongly do you feel that <strong>sweet</strong> is a good fit for the opposite side of the <strong>Grumpy</strong> scale?</p></div>","4"
"","","","","","survey-text","152","3179928","0.0-152.0","20613","{""Q0"":""insincere""}","","","Sincere","",""
"","","","","","html-slider-response","153","3184258","0.0-153.0","4328","5","","","Sincere","<div style=""width:500px;""> <p>How strongly do you feel that <strong>insincere</strong> is a good fit for the opposite side of the <strong>Sincere</strong> scale?</p></div>","4"
"","","","","","survey-text","154","3184654","0.0-154.0","394","{""Q0"":""""}","","","Rebellious","",""
"","","","","","html-slider-response","155","3195733","0.0-155.0","11076","5","","","Rebellious","<div style=""width:500px;""> <p>How strongly do you feel that <strong></strong> is a good fit for the opposite side of the <strong>Rebellious</strong> scale?</p></div>","4"
"","","","","","survey-text","156","3220722","0.0-156.0","24985","{""Q0"":""lazy""}","","","Helpful","",""
"","","","","","html-slider-response","157","3224061","0.0-157.0","3336","5","","","Helpful","<div style=""width:500px;""> <p>How strongly do you feel that <strong>lazy</strong> is a good fit for the opposite side of the <strong>Helpful</strong> scale?</p></div>","4"
"","","","","","survey-text","158","3237683","0.0-158.0","13618","{""Q0"":""lazy""}","","","Ambitious","",""
"","","","","","html-slider-response","159","3240968","0.0-159.0","3284","5","","","Ambitious","<div style=""width:500px;""> <p>How strongly do you feel that <strong>lazy</strong> is a good fit for the opposite side of the <strong>Ambitious</strong> scale?</p></div>","4"
"","","","","","survey-text","160","3259253","0.0-160.0","18280","{""Q0"":""disagreeable""}","","","Agreeable","",""
"","","","","","html-slider-response","161","3262750","0.0-161.0","3495","5","","","Agreeable","<div style=""width:500px;""> <p>How strongly do you feel that <strong>disagreeable</strong> is a good fit for the opposite side of the <strong>Agreeable</strong> scale?</p></div>","4"
"","","","","","survey-text","162","3277518","0.0-162.0","14764","{""Q0"":""cold""}","","","Affectionate","",""
"","","","","","html-slider-response","163","3282055","0.0-163.0","4536","5","","","Affectionate","<div style=""width:500px;""> <p>How strongly do you feel that <strong>cold</strong> is a good fit for the opposite side of the <strong>Affectionate</strong> scale?</p></div>","4"
"","","","","","survey-text","164","3329925","0.0-164.0","47867","{""Q0"":""confident""}","","","Defensive","",""
"","","","","","html-slider-response","165","3336965","0.0-165.0","7038","5","","","Defensive","<div style=""width:500px;""> <p>How strongly do you feel that <strong>confident</strong> is a good fit for the opposite side of the <strong>Defensive</strong> scale?</p></div>","4"
"","","","","","survey-text","166","3380190","0.0-166.0","43221","{""Q0"":""compassion""}","","","Manipulative","",""
"","","","","","html-slider-response","167","3383782","0.0-167.0","3590","5","","","Manipulative","<div style=""width:500px;""> <p>How strongly do you feel that <strong>compassion</strong> is a good fit for the opposite side of the <strong>Manipulative</strong> scale?</p></div>","4"
"","","","","","survey-text","168","3394366","0.0-168.0","10580","{""Q0"":""immature""}","","","Mature","",""
"","","","","","html-slider-response","169","3397970","0.0-169.0","3602","7","","","Mature","<div style=""width:500px;""> <p>How strongly do you feel that <strong>immature</strong> is a good fit for the opposite side of the <strong>Mature</strong> scale?</p></div>","4"
"","","","","","survey-text","170","3405197","0.0-170.0","7224","{""Q0"":""ugly""}","","","Beautiful","",""
"","","","","","html-slider-response","171","3408344","0.0-171.0","3144","6","","","Beautiful","<div style=""width:500px;""> <p>How strongly do you feel that <strong>ugly</strong> is a good fit for the opposite side of the <strong>Beautiful</strong> scale?</p></div>","4"
"","","","","","survey-text","172","3413029","0.0-172.0","4682","{""Q0"":""sad""}","","","Happy","",""
"","","","","","html-slider-response","173","3416286","0.0-173.0","3255","7","","","Happy","<div style=""width:500px;""> <p>How strongly do you feel that <strong>sad</strong> is a good fit for the opposite side of the <strong>Happy</strong> scale?</p></div>","4"
"","","","","","survey-text","174","3422278","0.0-174.0","5988","{""age"":""71""}","","","","",""
"","","","","","survey-multi-choice","175","3426430","0.0-175.0","4149","{""race"":""White""}","[0]","","","",""
"","","","","","survey-multi-choice","176","3446218","0.0-176.0","19783","{""hispanic"":""Not Hispanic or Latino"",""gender"":""Female"",""sexOrientation"":""Heterosexual or straight"",""education"":""Highschool""}","[0,1,2,3]","","","",""
